"rt","url","trial_type","trial_index","time_elapsed","internal_node_id","participant_id","stimulus","button_pressed","Name","responses","response","key_press","variableName","fixationTime","condition","trial","photo","subjectRating","subjectResponse","agentsNames","agent_1_Response","agent_2_Response","agent_3_Response","agent_4_Response","agent_5_Response","agent_6_Response","kept_1_name","kept_1_response","kept_2_name","kept_2_response","kept_3_name","kept_3_response","errorCounter"
"17835","external_page_harvard.html","external-html","0","17976","0.0-0.0","AK1GE19RT3PK6","","","","","","","","","","","","","","","","","","","","","","","","","","",""
"1542","","image-button-response","1","19526","0.0-1.0","AK1GE19RT3PK6","","0","","","","","","","","","","","","","","","","","","","","","","","","",""
"1786","","image-button-response","2","21334","0.0-2.0-0.0","AK1GE19RT3PK6","","1","phone","","","","","","","","","","","","","","","","","","","","","","","",""
"5668","","survey-text","3","27014","0.0-3.0-0.0","AK1GE19RT3PK6","","","","{""Q0"":""AK1GE19RT3PK6""}","","","","","","","","","","","","","","","","","","","","","","",""
"4325","","image-button-response_instructions","4","31355","0.0-4.0","AK1GE19RT3PK6","","0","instructions","","","","","","","","","","","","","","","","","","","","","","","",""
"9802","","image-button-response_instructions","5","41165","0.0-5.0","AK1GE19RT3PK6","img_art/ins/popularity/ins1.png","0","instructions","","","","","","","","","","","","","","","","","","","","","","","",""
"4689","","image-button-response_instructions","6","45862","0.0-6.0","AK1GE19RT3PK6","img_art/ins/popularity/ins2.png","0","instructions","","","","","","","","","","","","","","","","","","","","","","","",""
"3816","","image-button-response_instructions","7","49685","0.0-7.0","AK1GE19RT3PK6","img_art/ins/popularity/ins2Extreme.png","0","instructions","","","","","","","","","","","","","","","","","","","","","","","",""
"5592","","image-button-response_instructions","8","55290","0.0-8.0","AK1GE19RT3PK6","img_art/ins/popularity/ins3KEEPpop.PNG","0","instructions","","","","","","","","","","","","","","","","","","","","","","","",""
"3372","","image-button-response_instructions","9","58670","0.0-9.0","AK1GE19RT3PK6","img_art/ins/popularity/ins3ANamepop.PNG","0","instructions","","","","","","","","","","","","","","","","","","","","","","","",""
"3006","","image-button-response_instructions","10","61688","0.0-10.0","AK1GE19RT3PK6","img_art/ins/popularity/ins3ARatingpop.png","0","instructions","","","","","","","","","","","","","","","","","","","","","","","",""
"2428","","image-button-response_instructions","11","64128","0.0-11.0","AK1GE19RT3PK6","img_art/ins/popularity/ins3ATextpop.png","0","instructions","","","","","","","","","","","","","","","","","","","","","","","",""
"6213","","image-button-response_instructions","12","70350","0.0-12.0","AK1GE19RT3PK6","img_art/ins/popularity/ins3ALikespop.png","0","instructions","","","","","","","","","","","","","","","","","","","","","","","",""
"10526","","image-button-response_instructions","13","80890","0.0-13.0","AK1GE19RT3PK6","img_art/ins/popularity/ins3KEEPpop.PNG","0","instructions","","","","","","","","","","","","","","","","","","","","","","","",""
"12845","","image-button-response_instructions","14","93745","0.0-14.0","AK1GE19RT3PK6","img_art/ins/popularity/ins3_5RED.png","0","instructions","","","","","","","","","","","","","","","","","","","","","","","",""
"3870","","image-button-response_instructions","15","97628","0.0-15.0","AK1GE19RT3PK6","img_art/ins/popularity/ins3KEEPpop.PNG","0","instructions","","","","","","","","","","","","","","","","","","","","","","","",""
"7154","","image-button-response_instructions","16","104792","0.0-16.0","AK1GE19RT3PK6","img_art/ins/popularity/ins4KEEPpop.PNG","0","instructions","","","","","","","","","","","","","","","","","","","","","","","",""
"3638","","image-button-response_instructions","17","108443","0.0-17.0","AK1GE19RT3PK6","img_art/ins/popularity/ins5KEEPpop.PNG","0","instructions","","","","","","","","","","","","","","","","","","","","","","","",""
"1843","","image-button-response_instructions","18","110300","0.0-18.0","AK1GE19RT3PK6","","0","instructions","","","","","","","","","","","","","","","","","","","","","","","",""
"6646","","survey-text","19","117050","0.0-19.0-0.0","AK1GE19RT3PK6","","","","{""Q0"":""but""}","","","","","","","","","","","","","","","","","","","","","","",""
"8630","","survey-text","20","125691","0.0-20.0-0.0","AK1GE19RT3PK6","","","","{""Q0"":""I like the colors.""}","","","","","","","","","","","","","","","","","","","","","","",""
"5580.39999999851","","image-slider-response","21","131285","0.0-21.0","AK1GE19RT3PK6","","","","","11","","","","","","","","","","","","","","","","","","","","","",""
"null","","image-button-response","22","136301","0.0-22.0","AK1GE19RT3PK6","img_art/ins/1.jpg","null","","","","","","","","","","","","","","","","","","","","","","","","",""
"4275","","image-button-response","23","140592","0.0-23.0","AK1GE19RT3PK6","img_art/ins/1.jpg","5","","","","","","","","","","","","","","","","","","","","","","","","",""
"946","","image-button-response","24","141556","0.0-24.0-0.0","AK1GE19RT3PK6","img_art/ins/1.jpg","3","","","","","","","","","","","","","","","","","","","","","","","","",""
"1703","","image-button-response","25","143273","0.0-25.0-0.0","AK1GE19RT3PK6","img_art/ins/1.jpg","1","","","","","","","","","","","","","","","","","","","","","","","","",""
"null","","html-keyboard-response","26","144782","0.0-26.0","AK1GE19RT3PK6","<p style=""font-size: 48px;"">+</p>","","","","","null","allTrialResponses","1500","1","-2","img_art/ins/1.jpg","11","I like the colors.","Adam,Alex,Ben,Carl,Daniel,Jack","Seems like doodles,-20,20,20","very creative work.,36,40,20","This color reminds me of poo,-46,60,20","very calming artwork,42,80,20","It looks like a murder scene.,-48,100,20","I like the sophisticated brushwork,40,120,20","Jack","I like the sophisticated brushwork,40,120,20","Carl","very calming artwork,42,80,20","Alex","very creative work.,36,40,20","0"
"14451","","survey-text","27","159253","0.0-27.0-0.0","AK1GE19RT3PK6","","","","{""Q0"":""I don't like it or the colors.""}","","","","","","","","","","","","","","","","","","","","","","",""
"2803.39999999851","","image-slider-response","28","162069","0.0-28.0","AK1GE19RT3PK6","","","","","-50","","","","","","","","","","","","","","","","","","","","","",""
"null","","image-button-response","29","167085","0.0-29.0","AK1GE19RT3PK6","img_art/ins/2.jpg","null","","","","","","","","","","","","","","","","","","","","","","","","",""
"1026","","image-button-response","30","168126","0.0-30.0","AK1GE19RT3PK6","img_art/ins/2.jpg","2","","","","","","","","","","","","","","","","","","","","","","","","",""
"606","","image-button-response","31","168742","0.0-31.0-0.0","AK1GE19RT3PK6","img_art/ins/2.jpg","0","","","","","","","","","","","","","","","","","","","","","","","","",""
"4791","","image-button-response","32","173556","0.0-32.0-0.0","AK1GE19RT3PK6","img_art/ins/2.jpg","3","","","","","","","","","","","","","","","","","","","","","","","","",""
"null","","html-keyboard-response","33","175064","0.0-33.0","AK1GE19RT3PK6","<p style=""font-size: 48px;"">+</p>","","","","","null","allTrialResponses","1500","1","-1","img_art/ins/2.jpg","-50","I don't like it or the colors.","James,Alex,Kyle,Carl,John,Jack","looks too angry,-50,140,20","I like the blocks of color arrangements,30,40,20","Idk, it is just annoying,-32,180,20","I can feel the artist's passion in it,45,80,20","love the texture of paint,48,160,20","I would never be able to compose a sophisticated pallete like this,48,120,20","Kyle","Idk, it is just annoying,-32,180,20","James","looks too angry,-50,140,20","Carl","I can feel the artist's passion in it,45,80,20","0"
"12241","","survey-text","34","187324","0.0-34.0-0.0","AK1GE19RT3PK6","","","","{""Q0"":""I like the colors and it feels cool.""}","","","","","","","","","","","","","","","","","","","","","","",""
"4179.60000000149","","image-slider-response","35","191517","0.0-35.0","AK1GE19RT3PK6","","","","","12","","","","","","","","","","","","","","","","","","","","","",""
"null","","image-button-response","36","196530","0.0-36.0","AK1GE19RT3PK6","img_art/ins/3.jpg","null","","","","","","","","","","","","","","","","","","","","","","","","",""
"877","","image-button-response","37","197419","0.0-37.0","AK1GE19RT3PK6","img_art/ins/3.jpg","1","","","","","","","","","","","","","","","","","","","","","","","","",""
"747","","image-button-response","38","198180","0.0-38.0-0.0","AK1GE19RT3PK6","img_art/ins/3.jpg","5","","","","","","","","","","","","","","","","","","","","","","","","",""
"633","","image-button-response","39","198825","0.0-39.0-0.0","AK1GE19RT3PK6","img_art/ins/3.jpg","3","","","","","","","","","","","","","","","","","","","","","","","","",""
"null","","html-keyboard-response","40","200333","0.0-40.0","AK1GE19RT3PK6","<p style=""font-size: 48px;"">+</p>","","","","","null","allTrialResponses","1500","1","0","img_art/ins/3.jpg","12","I like the colors and it feels cool.","James,Mike,Kyle,Carl,Ron,Sam","My worst nightmare,-42,140,20","enjoy the different shades of blue,22,200,20","It looks like a playground for bats,-36,180,20","It's an alright work,15,80,20","It looks depressing,-26,220,20","I can feel a rainy day from this painting,18,240,20","Mike","enjoy the different shades of blue,22,200,20","Sam","I can feel a rainy day from this painting,18,240,20","Carl","It's an alright work,15,80,20","0"
"4464","","image-button-response_instructions","41","204820","0.0-41.0","AK1GE19RT3PK6","","0","instructions","","","","","","","","","","","","","","","","","","","","","","","",""
"11345","","survey-likert","42","216177","0.0-42.0-0.0","AK1GE19RT3PK6","","","","{""Q0"":"""",""Q1"":1,""Q2"":1}","","","","","","","","","","","","","","","","","","","","","","",""
"5315","","survey-likert","43","223549","0.0-42.1-0.1","AK1GE19RT3PK6","","","","{""Q0"":"""",""Q1"":0,""Q2"":1}","","","","","","","","","","","","","","","","","","","","","","",""
"3952","","survey-text","44","227525","0.0-43.0-0.0","AK1GE19RT3PK6","","","","{""Q0"":""rock""}","","","","","","","","","","","","","","","","","","","","","","",""
"16788","","survey-text","45","244321","0.0-44.0-0.0","AK1GE19RT3PK6","","","","{""Q0"":""I think it is too strange and boring.""}","","","","","","","","","","","","","","","","","","","","","","",""
"2770.89999999851","","image-slider-response","46","247101","0.0-45.0","AK1GE19RT3PK6","","","","","-50","","","","","","","","","","","","","","","","","","","","","",""
"null","","image-button-response","47","252178","0.0-46.0","AK1GE19RT3PK6","img_art/10.jpg","null","","","","","","","","","","","","","","","","","","","","","","","","",""
"2162","","image-button-response","48","254354","0.0-47.0","AK1GE19RT3PK6","img_art/10.jpg","0","","","","","","","","","","","","","","","","","","","","","","","","",""
"8082","","image-button-response","49","262450","0.0-48.0-0.0","AK1GE19RT3PK6","img_art/10.jpg","5","","","","","","","","","","","","","","","","","","","","","","","","",""
"856","","image-button-response","50","263321","0.0-49.0-0.0","AK1GE19RT3PK6","img_art/10.jpg","3","","","","","","","","","","","","","","","","","","","","","","","","",""
"null","","html-keyboard-response","51","264829","0.0-50.0","AK1GE19RT3PK6","<p style=""font-size: 48px;"">+</p>","","","","","null","allTrialResponses","1500","1","1","img_art/10.jpg","-50","I think it is too strange and boring.","Noah,Adam,Stephen,Michael,Dakota,Brandon","not sure what to make of this one,0,260,20","I like the contrast,10,40,20","Very nice painting, would like it more with different color choice.,6,140,20","Ugly and low skill. I wouldn't want it.,-50,140,20","I feel a state of readiness without anxiety.,24,280,20","Too abstract and it doesn't really remind me of anything,-40,320,20","Noah","not sure what to make of this one,0,260,20","Brandon","Too abstract and it doesn't really remind me of anything,-40,320,20","Michael","Ugly and low skill. I wouldn't want it.,-50,140,20","1"
"12644","","survey-text","52","277493","0.0-51.0-0.0","AK1GE19RT3PK6","","","","{""Q0"":""I really like the colors.""}","","","","","","","","","","","","","","","","","","","","","","",""
"3476.8000000044703","","image-slider-response","53","280979","0.0-52.0","AK1GE19RT3PK6","","","","","28","","","","","","","","","","","","","","","","","","","","","",""
"null","","image-button-response","54","285992","0.0-53.0","AK1GE19RT3PK6","img_art/17.jpg","null","","","","","","","","","","","","","","","","","","","","","","","","",""
"3530","","image-button-response","55","289537","0.0-54.0","AK1GE19RT3PK6","img_art/17.jpg","4","","","","","","","","","","","","","","","","","","","","","","","","",""
"651","","image-button-response","56","290200","0.0-55.0-0.0","AK1GE19RT3PK6","img_art/17.jpg","5","","","","","","","","","","","","","","","","","","","","","","","","",""
"2213","","image-button-response","57","292427","0.0-56.0-0.0","AK1GE19RT3PK6","img_art/17.jpg","2","","","","","","","","","","","","","","","","","","","","","","","","",""
"null","","html-keyboard-response","58","292932","0.0-57.0","AK1GE19RT3PK6","<p style=""font-size: 48px;"">+</p>","","","","","null","allTrialResponses","500","1","2","img_art/17.jpg","28","I really like the colors.","Noah,Devin,Edward,Michael,John,Brandon","feel close to nature,30,260,20","So expressive and wonderful wow!,17,380,20","I love how soft it is,35,60,20","There is better structure and direction in this one.,19,140,20","It gorgeous and i love how the tree is almost 3 dimensional.So many elements to it.,50,120,20","Love the color and nature motif,36,320,20","John","It gorgeous and i love how the tree is almost 3 dimensional.So many elements to it.,50,120,20","Brandon","Love the color and nature motif,36,320,20","Edward","I love how soft it is,35,60,20","1"
"17323","","survey-text","59","310277","0.0-58.0-0.0","AK1GE19RT3PK6","","","","{""Q0"":""It feels too angry or negative.""}","","","","","","","","","","","","","","","","","","","","","","",""
"2996","","image-slider-response","60","313283","0.0-59.0","AK1GE19RT3PK6","","","","","-50","","","","","","","","","","","","","","","","","","","","","",""
"null","","image-button-response","61","318297","0.0-60.0","AK1GE19RT3PK6","img_art/3.jpg","null","","","","","","","","","","","","","","","","","","","","","","","","",""
"2323","","image-button-response","62","320637","0.0-61.0","AK1GE19RT3PK6","img_art/3.jpg","5","","","","","","","","","","","","","","","","","","","","","","","","",""
"625","","image-button-response","63","321276","0.0-62.0-0.0","AK1GE19RT3PK6","img_art/3.jpg","4","","","","","","","","","","","","","","","","","","","","","","","","",""
"1625","","image-button-response","64","322912","0.0-63.0-0.0","AK1GE19RT3PK6","img_art/3.jpg","3","","","","","","","","","","","","","","","","","","","","","","","","",""
"null","","html-keyboard-response","65","323919","0.0-64.0","AK1GE19RT3PK6","<p style=""font-size: 48px;"">+</p>","","","","","null","allTrialResponses","1000","1","3","img_art/3.jpg","-50","It feels too angry or negative.","Luis,Andrew,Edward,Evan,John,Brandon","I dont really feel anything from this, i cant see or understand any of it,-20,400,20","It doesn't make me think of art,-20,160,20","It looks like someone took a red sharpie and just scribbled angrily,-20,60,20","It feels like a half assed and failed imitation of Japanese signatures on old paintings,-22,140,20","Looks like someone spilled ketchup and forgot to clean it up,-30,120,20","Just scribbles. Not a fan.,-40,320,20","Brandon","Just scribbles. Not a fan.,-40,320,20","John","Looks like someone spilled ketchup and forgot to clean it up,-30,120,20","Evan","It feels like a half assed and failed imitation of Japanese signatures on old paintings,-22,140,20","1"
"25651","","survey-text","66","349588","0.0-65.0-0.0","AK1GE19RT3PK6","","","","{""Q0"":""I like the colors and subject matter.""}","","","","","","","","","","","","","","","","","","","","","","",""
"2978.10000000149","","image-slider-response","67","352579","0.0-66.0","AK1GE19RT3PK6","","","","","12","","","","","","","","","","","","","","","","","","","","","",""
"null","","image-button-response","68","357594","0.0-67.0","AK1GE19RT3PK6","img_art/18.jpg","null","","","","","","","","","","","","","","","","","","","","","","","","",""
"2607","","image-button-response","69","360220","0.0-68.0","AK1GE19RT3PK6","img_art/18.jpg","3","","","","","","","","","","","","","","","","","","","","","","","","",""
"4448","","image-button-response","70","364683","0.0-69.0-0.0","AK1GE19RT3PK6","img_art/18.jpg","4","","","","","","","","","","","","","","","","","","","","","","","","",""
"5840","","image-button-response","71","370538","0.0-70.0-0.0","AK1GE19RT3PK6","img_art/18.jpg","0","","","","","","","","","","","","","","","","","","","","","","","","",""
"null","","html-keyboard-response","72","371046","0.0-71.0","AK1GE19RT3PK6","<p style=""font-size: 48px;"">+</p>","","","","","null","allTrialResponses","500","1","4","img_art/18.jpg","12","I like the colors and subject matter.","Alexis,Tristan,Elijah,Evan,John,Brandon","It's possibly of a mermaid luring in a ship,15,140,20","So much going on. Frightening and tumultous, brave and inspiring. I'd like to spend the rest of my life interpreting it.,30,300,20","Makes me feel confused,16,80,20","This brings to mind the four horsemen of the apocalypse,8,140,20","There are alot of elements to this painting and a good mix of colors,32,120,20","Crusade-feel, but a little too abstract for my taste,23,320,20","Evan","This brings to mind the four horsemen of the apocalypse,8,140,20","John","There are alot of elements to this painting and a good mix of colors,32,120,20","Alexis","It's possibly of a mermaid luring in a ship,15,140,20","1"
"10899","","survey-text","73","381964","0.0-72.0-0.0","AK1GE19RT3PK6","","","","{""Q0"":""I don't like the colors or design.""}","","","","","","","","","","","","","","","","","","","","","","",""
"2939.89999999851","","image-slider-response","74","384915","0.0-73.0","AK1GE19RT3PK6","","","","","-50","","","","","","","","","","","","","","","","","","","","","",""
"null","","image-button-response","75","389928","0.0-74.0","AK1GE19RT3PK6","img_art/12.jpg","null","","","","","","","","","","","","","","","","","","","","","","","","",""
"1994","","image-button-response","76","391936","0.0-75.0","AK1GE19RT3PK6","img_art/12.jpg","2","","","","","","","","","","","","","","","","","","","","","","","","",""
"1366","","image-button-response","77","393316","0.0-76.0-0.0","AK1GE19RT3PK6","img_art/12.jpg","3","","","","","","","","","","","","","","","","","","","","","","","","",""
"448","","image-button-response","78","393780","0.0-77.0-0.0","AK1GE19RT3PK6","img_art/12.jpg","4","","","","","","","","","","","","","","","","","","","","","","","","",""
"null","","html-keyboard-response","79","395286","0.0-78.0","AK1GE19RT3PK6","<p style=""font-size: 48px;"">+</p>","","","","","null","allTrialResponses","1500","1","5","img_art/12.jpg","-50","I don't like the colors or design.","Alexis,Angel,Jordan,Evan,John,Brett","In my opinion, this photo has an old school vibe,22,140,20","This feels cosmopolitan. Like looking at a high rise apartment at night and seeing into everyone's windows.,20,180,20","Made me uncomfortable, reminded me of the 90s,-9,160,20","It reminds me of the documentary Paris is Burning, though I'm not sure why,11,140,20","Its cool,reminiscent of Andy Warhol type of style,10,120,20","Night and day, light and dark,35,360,20","Jordan","Made me uncomfortable, reminded me of the 90s,-9,160,20","Evan","It reminds me of the documentary Paris is Burning, though I'm not sure why,11,140,20","John","Its cool,reminiscent of Andy Warhol type of style,10,120,20","1"
"3472","","survey-text","80","398786","0.0-79.0-0.0","AK1GE19RT3PK6","","","","{""Q0"":""sky""}","","","","","","","","","","","","","","","","","","","","","","",""
"10161","","survey-text","81","408955","0.0-80.0-0.0","AK1GE19RT3PK6","","","","{""Q0"":""It is too boring.""}","","","","","","","","","","","","","","","","","","","","","","",""
"2601.6999999955297","","image-slider-response","82","411563","0.0-81.0","AK1GE19RT3PK6","","","","","-50","","","","","","","","","","","","","","","","","","","","","",""
"null","","image-button-response","83","416580","0.0-82.0","AK1GE19RT3PK6","img_art/5.jpg","null","","","","","","","","","","","","","","","","","","","","","","","","",""
"1543","","image-button-response","84","418139","0.0-83.0","AK1GE19RT3PK6","img_art/5.jpg","5","","","","","","","","","","","","","","","","","","","","","","","","",""
"1793","","image-button-response","85","419944","0.0-84.0-0.0","AK1GE19RT3PK6","img_art/5.jpg","3","","","","","","","","","","","","","","","","","","","","","","","","",""
"643","","image-button-response","86","420602","0.0-85.0-0.0","AK1GE19RT3PK6","img_art/5.jpg","0","","","","","","","","","","","","","","","","","","","","","","","","",""
"null","","html-keyboard-response","87","421610","0.0-86.0","AK1GE19RT3PK6","<p style=""font-size: 48px;"">+</p>","","","","","null","allTrialResponses","1000","1","6","img_art/5.jpg","-50","It is too boring.","Logan,Grant,Jordan,Evan,John,Marcus","Just doesn't do a whole lot for me. I see Cinderellas broom,-11,360,20","This elicits no reaction in me.,0,200,20","Reminds me of a broken umbrella,-9,160,20","I am confused as to what I am seeing is it a handbag, duck foot, bell?,-18,140,20","It has a sense of vague familiarity that i like.Like a stick starting a fire at a campsite.,30,120,20","I really dislike this. It's ugly and looks dirty.,-44,60,20","Marcus","I really dislike this. It's ugly and looks dirty.,-44,60,20","Evan","I am confused as to what I am seeing is it a handbag, duck foot, bell?,-18,140,20","Logan","Just doesn't do a whole lot for me. I see Cinderellas broom,-11,360,20","1"
"18583","","survey-text","88","440213","0.0-87.0-0.0","AK1GE19RT3PK6","","","","{""Q0"":""I just don't like it or the colors.""}","","","","","","","","","","","","","","","","","","","","","","",""
"2284.10000000149","","image-slider-response","89","442508","0.0-88.0","AK1GE19RT3PK6","","","","","-50","","","","","","","","","","","","","","","","","","","","","",""
"null","","image-button-response","90","447525","0.0-89.0","AK1GE19RT3PK6","img_art/9.jpg","null","","","","","","","","","","","","","","","","","","","","","","","","",""
"1662","","image-button-response","91","449204","0.0-90.0","AK1GE19RT3PK6","img_art/9.jpg","4","","","","","","","","","","","","","","","","","","","","","","","","",""
"503","","image-button-response","92","449723","0.0-91.0-0.0","AK1GE19RT3PK6","img_art/9.jpg","5","","","","","","","","","","","","","","","","","","","","","","","","",""
"1074","","image-button-response","93","450812","0.0-92.0-0.0","AK1GE19RT3PK6","img_art/9.jpg","2","","","","","","","","","","","","","","","","","","","","","","","","",""
"null","","html-keyboard-response","94","452317","0.0-93.0","AK1GE19RT3PK6","<p style=""font-size: 48px;"">+</p>","","","","","null","allTrialResponses","1500","1","7","img_art/9.jpg","-50","I just don't like it or the colors.","Logan,Joseph,Gregory,Evan,Charles,Marcus","is that sleeping beauty,33,360,20","It's nice. Peaceful. Calming.,11,220,20","Mash up of colors and designs don't really go together,-5,220,20","It makes me think of Snow White sleeping,11,140,20","It's too all over the place,-37,100,20","This painting feels too jumbled for me to like it.,-12,60,20","Charles","It's too all over the place,-37,100,20","Marcus","This painting feels too jumbled for me to like it.,-12,60,20","Gregory","Mash up of colors and designs don't really go together,-5,220,20","1"
"9626","","survey-text","95","461966","0.0-94.0-0.0","AK1GE19RT3PK6","","","","{""Q0"":""Too simple and poor colors.""}","","","","","","","","","","","","","","","","","","","","","","",""
"2843.39999999851","","image-slider-response","96","464818","0.0-95.0","AK1GE19RT3PK6","","","","","-50","","","","","","","","","","","","","","","","","","","","","",""
"null","","image-button-response","97","469831","0.0-96.0","AK1GE19RT3PK6","img_art/2.jpg","null","","","","","","","","","","","","","","","","","","","","","","","","",""
"705","","image-button-response","98","470543","0.0-97.0","AK1GE19RT3PK6","img_art/2.jpg","2","","","","","","","","","","","","","","","","","","","","","","","","",""
"631","","image-button-response","99","471186","0.0-98.0-0.0","AK1GE19RT3PK6","img_art/2.jpg","0","","","","","","","","","","","","","","","","","","","","","","","","",""
"1778","","image-button-response","100","472979","0.0-99.0-0.0","AK1GE19RT3PK6","img_art/2.jpg","0","","","","","","","","","","","","","","","","","","","","","","","","",""
"925","","image-button-response","101","478186","0.0-99.1-0.1","AK1GE19RT3PK6","img_art/2.jpg","3","","","","","","","","","","","","","","","","","","","","","","","","",""
"null","","html-keyboard-response","102","478690","0.0-100.0","AK1GE19RT3PK6","<p style=""font-size: 48px;"">+</p>","","","","","null","allTrialResponses","500","1","8","img_art/2.jpg","-50","Too simple and poor colors.","Thomas,Jeremy,Gregory,Colton,Charles,Marcus","My first thought was that it looks like a children's art project,-30,220,20","Unhappy. I do not like it,-5,60,20","Awful color coordination and design,-35,220,20","too blocky and don't like color combination,-32,220,20","I like the green,13,100,20","Only like the blues and teals in this. The rest is unappealing.,-15,60,20","Gregory","Awful color coordination and design,-35,220,20","Thomas","My first thought was that it looks like a children's art project,-30,220,20","Colton","too blocky and don't like color combination,-32,220,20","3"
"14788","","survey-text","103","493499","0.0-101.0-0.0","AK1GE19RT3PK6","","","","{""Q0"":""Kind of cool but I don't like the colors.""}","","","","","","","","","","","","","","","","","","","","","","",""
"5692","","image-slider-response","104","499204","0.0-102.0","AK1GE19RT3PK6","","","","","1","","","","","","","","","","","","","","","","","","","","","",""
"null","","image-button-response","105","504224","0.0-103.0","AK1GE19RT3PK6","img_art/13.jpg","null","","","","","","","","","","","","","","","","","","","","","","","","",""
"955","","image-button-response","106","505194","0.0-104.0","AK1GE19RT3PK6","img_art/13.jpg","5","","","","","","","","","","","","","","","","","","","","","","","","",""
"1730","","image-button-response","107","506933","0.0-105.0-0.0","AK1GE19RT3PK6","img_art/13.jpg","0","","","","","","","","","","","","","","","","","","","","","","","","",""
"436","","image-button-response","108","507386","0.0-106.0-0.0","AK1GE19RT3PK6","img_art/13.jpg","1","","","","","","","","","","","","","","","","","","","","","","","","",""
"null","","html-keyboard-response","109","507892","0.0-107.0","AK1GE19RT3PK6","<p style=""font-size: 48px;"">+</p>","","","","","null","allTrialResponses","500","1","9","img_art/13.jpg","1","Kind of cool but I don't like the colors.","Thomas,Sean,Gregory,Colton,Mark,Paul","Nothing about this stands out to me,-10,220,20","I like the colors,7,40,20","Cool colors and looks like rain on a window,45,220,20","love the colors and splatters,44,220,20","Raindrops on a window. Makes me feel like traveling.,31,80,20","It's like any other splatter paint art piece, nothing special,1,300,20","Paul","It's like any other splatter paint art piece, nothing special,1,300,20","Thomas","Nothing about this stands out to me,-10,220,20","Sean","I like the colors,7,40,20","3"
"11572","","survey-text","110","519485","0.0-108.0-0.0","AK1GE19RT3PK6","","","","{""Q0"":""Strange, dull colors.""}","","","","","","","","","","","","","","","","","","","","","","",""
"2770.5","","image-slider-response","111","522267","0.0-109.0","AK1GE19RT3PK6","","","","","-50","","","","","","","","","","","","","","","","","","","","","",""
"null","","image-button-response","112","527279","0.0-110.0","AK1GE19RT3PK6","img_art/11.jpg","null","","","","","","","","","","","","","","","","","","","","","","","","",""
"1447","","image-button-response","113","528738","0.0-111.0","AK1GE19RT3PK6","img_art/11.jpg","2","","","","","","","","","","","","","","","","","","","","","","","","",""
"1571","","image-button-response","114","530320","0.0-112.0-0.0","AK1GE19RT3PK6","img_art/11.jpg","1","","","","","","","","","","","","","","","","","","","","","","","","",""
"784","","image-button-response","115","531123","0.0-113.0-0.0","AK1GE19RT3PK6","img_art/11.jpg","5","","","","","","","","","","","","","","","","","","","","","","","","",""
"null","","html-keyboard-response","116","532130","0.0-114.0","AK1GE19RT3PK6","<p style=""font-size: 48px;"">+</p>","","","","","null","allTrialResponses","1000","1","10","img_art/11.jpg","-50","Strange, dull colors.","Thomas,Sean,Ryan,Joshua,Shawn,Paul","Lovely. I could look at this for a really long time. I love the details and the composition.,40,220,20","pic looks alright,8,40,20","It makes me feel angry and overwhelmed,-29,380,20","Is interesting. Wouldn't bother me to have this hanging where I'd see it every day.,11,240,20","Like the movement but not the background colors.,21,100,20","I like how it reminds me of music and at the same time it looks like colorful train tracks.,10,300,20","Ryan","It makes me feel angry and overwhelmed,-29,380,20","Sean","pic looks alright,8,40,20","Paul","I like how it reminds me of music and at the same time it looks like colorful train tracks.,10,300,20","3"
"3568","","survey-text","117","535742","0.0-115.0-0.0","AK1GE19RT3PK6","","","","{""Q0"":""our""}","","","","","","","","","","","","","","","","","","","","","","",""
"13093","","survey-text","118","548844","0.0-116.0-0.0","AK1GE19RT3PK6","","","","{""Q0"":""Feels too sad and boring, bad colors.""}","","","","","","","","","","","","","","","","","","","","","","",""
"2789.2999999970198","","image-slider-response","119","551643","0.0-117.0","AK1GE19RT3PK6","","","","","-50","","","","","","","","","","","","","","","","","","","","","",""
"null","","image-button-response","120","556654","0.0-118.0","AK1GE19RT3PK6","img_art/28.jpg","null","","","","","","","","","","","","","","","","","","","","","","","","",""
"1225","","image-button-response","121","557892","0.0-119.0","AK1GE19RT3PK6","img_art/28.jpg","5","","","","","","","","","","","","","","","","","","","","","","","","",""
"723","","image-button-response","122","558628","0.0-120.0-0.0","AK1GE19RT3PK6","img_art/28.jpg","2","","","","","","","","","","","","","","","","","","","","","","","","",""
"1832","","image-button-response","123","560476","0.0-121.0-0.0","AK1GE19RT3PK6","img_art/28.jpg","4","","","","","","","","","","","","","","","","","","","","","","","","",""
"null","","html-keyboard-response","124","561481","0.0-122.0","AK1GE19RT3PK6","<p style=""font-size: 48px;"">+</p>","","","","","null","allTrialResponses","1000","1","11","img_art/28.jpg","-50","Feels too sad and boring, bad colors.","Peter,Sean,Ryan,Alejandro,Gabriel,Paul","The earthy colors smeared around looks like prison food tray,-17,320,20","it looks alright,-1,40,20","Colors look too muddy for my liking,-33,380,20","I like the flow and abstract nature of what seems to be humans,40,80,20","this one is rather disturbing,-22,160,20","The dark colors make it look dirty and the shapes make me uncomfortable,-50,300,20","Paul","The dark colors make it look dirty and the shapes make me uncomfortable,-50,300,20","Ryan","Colors look too muddy for my liking,-33,380,20","Gabriel","this one is rather disturbing,-22,160,20","3"
"10835","","survey-text","125","572339","0.0-123.0-0.0","AK1GE19RT3PK6","","","","{""Q0"":""I like the colors and blending very much.""}","","","","","","","","","","","","","","","","","","","","","","",""
"3054.8000000044703","","image-slider-response","126","575404","0.0-124.0","AK1GE19RT3PK6","","","","","32","","","","","","","","","","","","","","","","","","","","","",""
"null","","image-button-response","127","580420","0.0-125.0","AK1GE19RT3PK6","img_art/1.jpg","null","","","","","","","","","","","","","","","","","","","","","","","","",""
"2392","","image-button-response","128","582827","0.0-126.0","AK1GE19RT3PK6","img_art/1.jpg","1","","","","","","","","","","","","","","","","","","","","","","","","",""
"2593","","image-button-response","129","585434","0.0-127.0-0.0","AK1GE19RT3PK6","img_art/1.jpg","0","","","","","","","","","","","","","","","","","","","","","","","","",""
"3481","","image-button-response","130","588927","0.0-128.0-0.0","AK1GE19RT3PK6","img_art/1.jpg","4","","","","","","","","","","","","","","","","","","","","","","","","",""
"null","","html-keyboard-response","131","589432","0.0-129.0","AK1GE19RT3PK6","<p style=""font-size: 48px;"">+</p>","","","","","null","allTrialResponses","500","1","12","img_art/1.jpg","32","I like the colors and blending very much.","Seth,Victor,Ryan,Jake,Gabriel,Paul","Might be a person rowing their boat across the lake. Not sure if the background is trees or not.,12,60,20","I like the colors and layers,25,340,20","Seems like one i previously saw in this survey,27,380,20","This is ugly with bad colors.,-6,360,20","this ones alright,10,160,20","I like the yellow and purple but the large red spot reminds me of blood and isn't great,6,300,20","Victor","I like the colors and layers,25,340,20","Seth","Might be a person rowing their boat across the lake. Not sure if the background is trees or not.,12,60,20","Gabriel","this ones alright,10,160,20","3"
"8848","","survey-text","132","598298","0.0-130.0-0.0","AK1GE19RT3PK6","","","","{""Q0"":""Too boring and simple.""}","","","","","","","","","","","","","","","","","","","","","","",""
"2453.5","","image-slider-response","133","600765","0.0-131.0","AK1GE19RT3PK6","","","","","-50","","","","","","","","","","","","","","","","","","","","","",""
"null","","image-button-response","134","605777","0.0-132.0","AK1GE19RT3PK6","img_art/6.jpg","null","","","","","","","","","","","","","","","","","","","","","","","","",""
"1651","","image-button-response","135","607444","0.0-133.0","AK1GE19RT3PK6","img_art/6.jpg","4","","","","","","","","","","","","","","","","","","","","","","","","",""
"537","","image-button-response","136","607995","0.0-134.0-0.0","AK1GE19RT3PK6","img_art/6.jpg","3","","","","","","","","","","","","","","","","","","","","","","","","",""
"2904","","image-button-response","137","610923","0.0-135.0-0.0","AK1GE19RT3PK6","img_art/6.jpg","5","","","","","","","","","","","","","","","","","","","","","","","","",""
"null","","html-keyboard-response","138","612428","0.0-136.0","AK1GE19RT3PK6","<p style=""font-size: 48px;"">+</p>","","","","","null","allTrialResponses","1500","1","13","img_art/6.jpg","-50","Too boring and simple.","Seth,Victor,Kenneth,Malik,Gabriel,Shane","I love it. It reminds me of a bird sitting on a wall.,26,60,20","The background on the upper half is nice. I also like the contrast of the top and bottom halves,5,340,20","Simple and pretty.,18,300,20","Lonesome in nature,13,40,20","its like a jalapeno,-28,160,20","A bird standing in the sun,37,80,20","Gabriel","its like a jalapeno,-28,160,20","Malik","Lonesome in nature,13,40,20","Shane","A bird standing in the sun,37,80,20","3"
"23962","","survey-text","139","636412","0.0-137.0-0.0","AK1GE19RT3PK6","","","","{""Q0"":""The colors are decent but it feels too messy.""}","","","","","","","","","","","","","","","","","","","","","","",""
"3876.8000000044703","","image-slider-response","140","640301","0.0-138.0","AK1GE19RT3PK6","","","","","-2","","","","","","","","","","","","","","","","","","","","","",""
"null","","image-button-response","141","645313","0.0-139.0","AK1GE19RT3PK6","img_art/22.jpg","null","","","","","","","","","","","","","","","","","","","","","","","","",""
"1794","","image-button-response","142","647122","0.0-140.0","AK1GE19RT3PK6","img_art/22.jpg","4","","","","","","","","","","","","","","","","","","","","","","","","",""
"558","","image-button-response","143","647688","0.0-141.0-0.0","AK1GE19RT3PK6","img_art/22.jpg","1","","","","","","","","","","","","","","","","","","","","","","","","",""
"649","","image-button-response","144","648356","0.0-142.0-0.0","AK1GE19RT3PK6","img_art/22.jpg","3","","","","","","","","","","","","","","","","","","","","","","","","",""
"null","","html-keyboard-response","145","648861","0.0-143.0","AK1GE19RT3PK6","<p style=""font-size: 48px;"">+</p>","","","","","null","allTrialResponses","500","1","14","img_art/22.jpg","-2","The colors are decent but it feels too messy.","Bradley,Connor,Vincent,Malik,Gabriel,Shane","I like this one. There is a lot to see if you keep looking for it.,27,300,20","Seems dated with geometic forms,-20,240,20","Can fit with anyone. And in any home a great piece of art,35,360,20","Beautiful forms, using color to define shape,14,40,20","its messy, like a child painted it,-14,160,20","Sunsets at the beach,42,80,20","Gabriel","its messy, like a child painted it,-14,160,20","Connor","Seems dated with geometic forms,-20,240,20","Malik","Beautiful forms, using color to define shape,14,40,20","3"
"18687","","survey-text","146","667573","0.0-144.0-0.0","AK1GE19RT3PK6","","","","{""Q0"":""It is smooth and clean, but I don't like the color choice.""}","","","","","","","","","","","","","","","","","","","","","","",""
"3459.3000000044703","","image-slider-response","147","671043","0.0-145.0","AK1GE19RT3PK6","","","","","-1","","","","","","","","","","","","","","","","","","","","","",""
"null","","image-button-response","148","676055","0.0-146.0","AK1GE19RT3PK6","img_art/30.jpg","null","","","","","","","","","","","","","","","","","","","","","","","","",""
"3123","","image-button-response","149","679194","0.0-147.0","AK1GE19RT3PK6","img_art/30.jpg","2","","","","","","","","","","","","","","","","","","","","","","","","",""
"1458","","image-button-response","150","680668","0.0-148.0-0.0","AK1GE19RT3PK6","img_art/30.jpg","5","","","","","","","","","","","","","","","","","","","","","","","","",""
"2152","","image-button-response","151","682836","0.0-149.0-0.0","AK1GE19RT3PK6","img_art/30.jpg","3","","","","","","","","","","","","","","","","","","","","","","","","",""
"null","","html-keyboard-response","152","683842","0.0-150.0","AK1GE19RT3PK6","<p style=""font-size: 48px;"">+</p>","","","","","null","allTrialResponses","1000","1","15","img_art/30.jpg","-1","It is smooth and clean, but I don't like the color choice.","William,Connor,Cole,Malik,Gabriel,Mason","to dark and dreary,-28,380,20","Layers are interesting,22,240,20","Its ugly. Too simple,-23,200,20","I can't parse any intention or emotion,-17,40,20","dont like this much at all,-30,160,20","Neat, but simple, I could make this. not skilled.,9,100,20","Cole","Its ugly. Too simple,-23,200,20","Mason","Neat, but simple, I could make this. not skilled.,9,100,20","Malik","I can't parse any intention or emotion,-17,40,20","3"
"3872","","survey-text","153","687749","0.0-151.0-0.0","AK1GE19RT3PK6","","","","{""Q0"":""course""}","","","","","","","","","","","","","","","","","","","","","","",""
"10781","","survey-text","154","698540","0.0-152.0-0.0","AK1GE19RT3PK6","","","","{""Q0"":""The colors are okay and it looks unique.""}","","","","","","","","","","","","","","","","","","","","","","",""
"2642.1999999955297","","image-slider-response","155","701195","0.0-153.0","AK1GE19RT3PK6","","","","","2","","","","","","","","","","","","","","","","","","","","","",""
"null","","image-button-response","156","706209","0.0-154.0","AK1GE19RT3PK6","img_art/27.jpg","null","","","","","","","","","","","","","","","","","","","","","","","","",""
"1049","","image-button-response","157","707274","0.0-155.0","AK1GE19RT3PK6","img_art/27.jpg","5","","","","","","","","","","","","","","","","","","","","","","","","",""
"2536","","image-button-response","158","709825","0.0-156.0-0.0","AK1GE19RT3PK6","img_art/27.jpg","1","","","","","","","","","","","","","","","","","","","","","","","","",""
"1137","","image-button-response","159","710978","0.0-157.0-0.0","AK1GE19RT3PK6","img_art/27.jpg","3","","","","","","","","","","","","","","","","","","","","","","","","",""
"null","","html-keyboard-response","160","712484","0.0-158.0","AK1GE19RT3PK6","<p style=""font-size: 48px;"">+</p>","","","","","null","allTrialResponses","1500","1","16","img_art/27.jpg","2","The colors are okay and it looks unique.","Garrett,Jason,Cole,Malik,Steven,Mason","This image could do a better job of showing what is going on and it could use more colors.,-42,180,20","The variation of orange is nice,9,20,20","Unfinished something?,-30,200,20","Nice color, but too vague,-12,40,20","two warring cities, separated by a small desert,50,160,20","dont like it, don't hate it, meh.,2,100,20","Mason","dont like it, don't hate it, meh.,2,100,20","Jason","The variation of orange is nice,9,20,20","Malik","Nice color, but too vague,-12,40,20","3"
"13715","","survey-text","161","726220","0.0-159.0-0.0","AK1GE19RT3PK6","","","","{""Q0"":""A bit too abstract and strange for me.""}","","","","","","","","","","","","","","","","","","","","","","",""
"4517.79999999702","","image-slider-response","162","730749","0.0-160.0","AK1GE19RT3PK6","","","","","-29","","","","","","","","","","","","","","","","","","","","","",""
"null","","image-button-response","163","735762","0.0-161.0","AK1GE19RT3PK6","img_art/14.jpg","null","","","","","","","","","","","","","","","","","","","","","","","","",""
"2115","","image-button-response","164","737890","0.0-162.0","AK1GE19RT3PK6","img_art/14.jpg","2","","","","","","","","","","","","","","","","","","","","","","","","",""
"1419","","image-button-response","165","739325","0.0-163.0-0.0","AK1GE19RT3PK6","img_art/14.jpg","5","","","","","","","","","","","","","","","","","","","","","","","","",""
"1726","","image-button-response","166","741065","0.0-164.0-0.0","AK1GE19RT3PK6","img_art/14.jpg","1","","","","","","","","","","","","","","","","","","","","","","","","",""
"null","","html-keyboard-response","167","741570","0.0-165.0","AK1GE19RT3PK6","<p style=""font-size: 48px;"">+</p>","","","","","null","allTrialResponses","500","1","17","img_art/14.jpg","-29","A bit too abstract and strange for me.","Nicholas,Jason,Timothy,Malik,Matthew,Mason","I love the feeling of the tree and people. Makes me happy,50,240,20","Focal point is interesting,5,20,20","Something about the cahotic imagery makes me uncomfortable,-15,240,20","It's alright, something I'd see in a guest bedroom,10,40,20","I like the color tone, it's kind of disturbing.,35,120,20","ok, gloomy though.,12,100,20","Timothy","Something about the cahotic imagery makes me uncomfortable,-15,240,20","Mason","ok, gloomy though.,12,100,20","Jason","Focal point is interesting,5,20,20","3"
"14963","","survey-text","168","756559","0.0-166.0-0.0","AK1GE19RT3PK6","","","","{""Q0"":""Do not like the subject matter or colors.""}","","","","","","","","","","","","","","","","","","","","","","",""
"2475.10000000149","","image-slider-response","169","759043","0.0-167.0","AK1GE19RT3PK6","","","","","-40","","","","","","","","","","","","","","","","","","","","","",""
"null","","image-button-response","170","764055","0.0-168.0","AK1GE19RT3PK6","img_art/8.jpg","null","","","","","","","","","","","","","","","","","","","","","","","","",""
"1940","","image-button-response","171","766006","0.0-169.0","AK1GE19RT3PK6","img_art/8.jpg","2","","","","","","","","","","","","","","","","","","","","","","","","",""
"1124","","image-button-response","172","767148","0.0-170.0-0.0","AK1GE19RT3PK6","img_art/8.jpg","3","","","","","","","","","","","","","","","","","","","","","","","","",""
"1656","","image-button-response","173","768820","0.0-171.0-0.0","AK1GE19RT3PK6","img_art/8.jpg","4","","","","","","","","","","","","","","","","","","","","","","","","",""
"null","","html-keyboard-response","174","769325","0.0-172.0","AK1GE19RT3PK6","<p style=""font-size: 48px;"">+</p>","","","","","null","allTrialResponses","500","1","18","img_art/8.jpg","-40","Do not like the subject matter or colors.","Anthony,Jason,Timothy,Robert,Daniel,Mason","Not my favorite but has an interesting concept,32,200,20","There are a lot of different interesting elements in the picture.,12,20,20","Too much going on, too many colors, makes me feel uneasy,-20,240,20","I like the colors and geometrical shapes but the face in the sky makes it look scary,-10,360,20","Cortez's influence with fair color choices,10,320,20","wow. blocky, angled, neat colors. The faces are what makes it. love it.,45,100,20","Timothy","Too much going on, too many colors, makes me feel uneasy,-20,240,20","Robert","I like the colors and geometrical shapes but the face in the sky makes it look scary,-10,360,20","Daniel","Cortez's influence with fair color choices,10,320,20","3"
"9162","","survey-text","175","778508","0.0-173.0-0.0","AK1GE19RT3PK6","","","","{""Q0"":""Too simple and bad coloring.""}","","","","","","","","","","","","","","","","","","","","","","",""
"1940.8999999985099","","image-slider-response","176","780459","0.0-174.0","AK1GE19RT3PK6","","","","","-50","","","","","","","","","","","","","","","","","","","","","",""
"null","","image-button-response","177","785472","0.0-175.0","AK1GE19RT3PK6","img_art/7.jpg","null","","","","","","","","","","","","","","","","","","","","","","","","",""
"755","","image-button-response","178","786245","0.0-176.0","AK1GE19RT3PK6","img_art/7.jpg","3","","","","","","","","","","","","","","","","","","","","","","","","",""
"1456","","image-button-response","179","787715","0.0-177.0-0.0","AK1GE19RT3PK6","img_art/7.jpg","1","","","","","","","","","","","","","","","","","","","","","","","","",""
"385","","image-button-response","180","788112","0.0-178.0-0.0","AK1GE19RT3PK6","img_art/7.jpg","0","","","","","","","","","","","","","","","","","","","","","","","","",""
"null","","html-keyboard-response","181","788620","0.0-179.0","AK1GE19RT3PK6","<p style=""font-size: 48px;"">+</p>","","","","","null","allTrialResponses","500","1","19","img_art/7.jpg","-50","Too simple and bad coloring.","Taylor,Alexander,Timothy,Robert,Daniel,Bryce","Looks like a photo taken from the moon.,-6,200,20","Dead bugs on an insect battleground.,-10,120,20","This feels very earthy and grounded,20,240,20","This looks muddy and stomped on. I think of destruction.,-50,360,20","Great portrayal of solid surface,19,320,20","I love the texture.,20,20,20","Robert","This looks muddy and stomped on. I think of destruction.,-50,360,20","Alexander","Dead bugs on an insect battleground.,-10,120,20","Taylor","Looks like a photo taken from the moon.,-6,200,20","3"
"15972","","survey-text","182","804611","0.0-180.0-0.0","AK1GE19RT3PK6","","","","{""Q0"":""Too strange and doesn't feel like an art piece.""}","","","","","","","","","","","","","","","","","","","","","","",""
"3140.7000000029802","","image-slider-response","183","807762","0.0-181.0","AK1GE19RT3PK6","","","","","-50","","","","","","","","","","","","","","","","","","","","","",""
"null","","image-button-response","184","812774","0.0-182.0","AK1GE19RT3PK6","img_art/16.jpg","null","","","","","","","","","","","","","","","","","","","","","","","","",""
"1728","","image-button-response","185","814514","0.0-183.0","AK1GE19RT3PK6","img_art/16.jpg","0","","","","","","","","","","","","","","","","","","","","","","","","",""
"1624","","image-button-response","186","816154","0.0-184.0-0.0","AK1GE19RT3PK6","img_art/16.jpg","4","","","","","","","","","","","","","","","","","","","","","","","","",""
"410","","image-button-response","187","816579","0.0-185.0-0.0","AK1GE19RT3PK6","img_art/16.jpg","3","","","","","","","","","","","","","","","","","","","","","","","","",""
"null","","html-keyboard-response","188","817085","0.0-186.0","AK1GE19RT3PK6","<p style=""font-size: 48px;"">+</p>","","","","","null","allTrialResponses","500","1","20","img_art/16.jpg","-50","Too strange and doesn't feel like an art piece.","Taylor,Alexander,Blake,Robert,Dylan,Jonathan","It is sick to put a teddy bear and a gun on the same piece of canvas.,-40,200,20","Strange and bleak.,-20,120,20","cute and warm. i like the bear,15,280,20","It looks violent.,-30,360,20","This is weird and creepy.,-40,40,20","It's a little anxiety inducing in a good way,16,140,20","Taylor","It is sick to put a teddy bear and a gun on the same piece of canvas.,-40,200,20","Dylan","This is weird and creepy.,-40,40,20","Robert","It looks violent.,-30,360,20","3"
"2523","","survey-text","189","819651","0.0-187.0-0.0","AK1GE19RT3PK6","","","","{""Q0"":""we""}","","","","","","","","","","","","","","","","","","","","","","",""
"7077","","survey-text","190","826738","0.0-188.0-0.0","AK1GE19RT3PK6","","","","{""Q0"":""Terrible colors.""}","","","","","","","","","","","","","","","","","","","","","","",""
"2511.7000000029802","","image-slider-response","191","829259","0.0-189.0","AK1GE19RT3PK6","","","","","-50","","","","","","","","","","","","","","","","","","","","","",""
"null","","image-button-response","192","834272","0.0-190.0","AK1GE19RT3PK6","img_art/4.jpg","null","","","","","","","","","","","","","","","","","","","","","","","","",""
"1012","","image-button-response","193","835302","0.0-191.0","AK1GE19RT3PK6","img_art/4.jpg","5","","","","","","","","","","","","","","","","","","","","","","","","",""
"495","","image-button-response","194","835812","0.0-192.0-0.0","AK1GE19RT3PK6","img_art/4.jpg","4","","","","","","","","","","","","","","","","","","","","","","","","",""
"344","","image-button-response","195","836171","0.0-193.0-0.0","AK1GE19RT3PK6","img_art/4.jpg","3","","","","","","","","","","","","","","","","","","","","","","","","",""
"null","","html-keyboard-response","196","837677","0.0-194.0","AK1GE19RT3PK6","<p style=""font-size: 48px;"">+</p>","","","","","null","allTrialResponses","1500","1","21","img_art/4.jpg","-50","Terrible colors.","Taylor,Brendan,Zachary,Robert,Dylan,Antonio","They give out trophies now for fighting with brass knuckles?,-20,200,20","just a scuffed hand,-15,340,20","Not a huge fan of the color story, but it reminds me of a child finger-painting.,12,400,20","It looks like a hand someone scribbled over,-30,360,20","This artwork looks like a child did it,-41,40,20","Blah feeling, nothing,-8,220,20","Antonio","Blah feeling, nothing,-8,220,20","Dylan","This artwork looks like a child did it,-41,40,20","Robert","It looks like a hand someone scribbled over,-30,360,20","3"
"12590","","survey-text","197","850293","0.0-195.0-0.0","AK1GE19RT3PK6","","","","{""Q0"":""Colors are decent but a bit too messy.""}","","","","","","","","","","","","","","","","","","","","","","",""
"2316.5999999940395","","image-slider-response","198","852620","0.0-196.0","AK1GE19RT3PK6","","","","","-1","","","","","","","","","","","","","","","","","","","","","",""
"null","","image-button-response","199","857636","0.0-197.0","AK1GE19RT3PK6","img_art/19.jpg","null","","","","","","","","","","","","","","","","","","","","","","","","",""
"1023","","image-button-response","200","858674","0.0-198.0","AK1GE19RT3PK6","img_art/19.jpg","3","","","","","","","","","","","","","","","","","","","","","","","","",""
"1786","","image-button-response","201","860474","0.0-199.0-0.0","AK1GE19RT3PK6","img_art/19.jpg","1","","","","","","","","","","","","","","","","","","","","","","","","",""
"478","","image-button-response","202","860968","0.0-200.0-0.0","AK1GE19RT3PK6","img_art/19.jpg","0","","","","","","","","","","","","","","","","","","","","","","","","",""
"null","","html-keyboard-response","203","861977","0.0-201.0","AK1GE19RT3PK6","<p style=""font-size: 48px;"">+</p>","","","","","null","allTrialResponses","1000","1","22","img_art/19.jpg","-1","Colors are decent but a bit too messy.","Kyle,Justin,Patrick,Robert,Dylan,Antonio","Just stirred a negative reaction. Don't really like it perhaps because of the structure?,-8,340,20","It looks too much of a rough sketch. Don't really enjoy looking at it.,-9,280,20","I like the vibrant color blocks,13,280,20","A dreary town in the fall.,-4,360,20","This photo has too much going on.,-19,40,20","Chaotic. Too much going on in the picture,14,220,20","Robert","A dreary town in the fall.,-4,360,20","Justin","It looks too much of a rough sketch. Don't really enjoy looking at it.,-9,280,20","Kyle","Just stirred a negative reaction. Don't really like it perhaps because of the structure?,-8,340,20","3"
"8514","","survey-text","204","870518","0.0-202.0-0.0","AK1GE19RT3PK6","","","","{""Q0"":""I like the mood and colors.""}","","","","","","","","","","","","","","","","","","","","","","",""
"3362.60000000149","","image-slider-response","205","873890","0.0-203.0","AK1GE19RT3PK6","","","","","39","","","","","","","","","","","","","","","","","","","","","",""
"null","","image-button-response","206","878902","0.0-204.0","AK1GE19RT3PK6","img_art/21.jpg","null","","","","","","","","","","","","","","","","","","","","","","","","",""
"1620","","image-button-response","207","880539","0.0-205.0","AK1GE19RT3PK6","img_art/21.jpg","2","","","","","","","","","","","","","","","","","","","","","","","","",""
"819","","image-button-response","208","881374","0.0-206.0-0.0","AK1GE19RT3PK6","img_art/21.jpg","5","","","","","","","","","","","","","","","","","","","","","","","","",""
"1569","","image-button-response","209","882955","0.0-207.0-0.0","AK1GE19RT3PK6","img_art/21.jpg","4","","","","","","","","","","","","","","","","","","","","","","","","",""
"null","","html-keyboard-response","210","883459","0.0-208.0","AK1GE19RT3PK6","<p style=""font-size: 48px;"">+</p>","","","","","null","allTrialResponses","500","1","23","img_art/21.jpg","39","I like the mood and colors.","Kyle,Justin,Nathan,Robert,Samuel,Aaron","The blues make me feel sadder as my mood is already not the best right now,-10,340,20","Alright. I like the colors.,5,280,20","I like it. It's some of war-scene, bloodshed and battle on the left, field of dispair on the right, dark and rich,40,200,20","A battle at sea, the red is a bomb exploding.,-31,360,20","feels like a wave coming into light,9,400,20","I love the colors and the differences between the left and right sides.,22,20,20","Nathan","I like it. It's some of war-scene, bloodshed and battle on the left, field of dispair on the right, dark and rich,40,200,20","Aaron","I love the colors and the differences between the left and right sides.,22,20,20","Samuel","feels like a wave coming into light,9,400,20","3"
"16088","","survey-text","211","899573","0.0-209.0-0.0","AK1GE19RT3PK6","","","","{""Q0"":""It's overall okay and simple.""}","","","","","","","","","","","","","","","","","","","","","","",""
"1995.3000000044703","","image-slider-response","212","901581","0.0-210.0","AK1GE19RT3PK6","","","","","1","","","","","","","","","","","","","","","","","","","","","",""
"null","","image-button-response","213","906597","0.0-211.0","AK1GE19RT3PK6","img_art/26.jpg","null","","","","","","","","","","","","","","","","","","","","","","","","",""
"1927","","image-button-response","214","908541","0.0-212.0","AK1GE19RT3PK6","img_art/26.jpg","4","","","","","","","","","","","","","","","","","","","","","","","","",""
"1360","","image-button-response","215","909913","0.0-213.0-0.0","AK1GE19RT3PK6","img_art/26.jpg","1","","","","","","","","","","","","","","","","","","","","","","","","",""
"2009","","image-button-response","216","911940","0.0-214.0-0.0","AK1GE19RT3PK6","img_art/26.jpg","5","","","","","","","","","","","","","","","","","","","","","","","","",""
"null","","html-keyboard-response","217","912945","0.0-215.0","AK1GE19RT3PK6","<p style=""font-size: 48px;"">+</p>","","","","","null","allTrialResponses","1000","1","24","img_art/26.jpg","1","It's overall okay and simple.","Hunter,Richard,Nathan,Jose,Samuel,Aaron","feels incomplete,-50,240,20","subtle use of colors, city street view?,8,340,20","It's a little too yellow-y for me, I'm not a huge fan of the color schemes or setting it portrays.,-20,200,20","This style of objects that are supposed to be something but then are blurry is interesting.,38,200,20","reminds me of a hometown,7,400,20","It looks like a watercolor I did when I was 6.,-30,20,20","Samuel","reminds me of a hometown,7,400,20","Richard","subtle use of colors, city street view?,8,340,20","Aaron","It looks like a watercolor I did when I was 6.,-30,20,20","3"
"11311","","survey-text","218","924286","0.0-216.0-0.0","AK1GE19RT3PK6","","","","{""Q0"":""Too violent and bad colors.""}","","","","","","","","","","","","","","","","","","","","","","",""
"3562.60000000149","","image-slider-response","219","927861","0.0-217.0","AK1GE19RT3PK6","","","","","-50","","","","","","","","","","","","","","","","","","","","","",""
"null","","image-button-response","220","932876","0.0-218.0","AK1GE19RT3PK6","img_art/29.jpg","null","","","","","","","","","","","","","","","","","","","","","","","","",""
"1456","","image-button-response","221","934347","0.0-219.0","AK1GE19RT3PK6","img_art/29.jpg","4","","","","","","","","","","","","","","","","","","","","","","","","",""
"458","","image-button-response","222","934818","0.0-220.0-0.0","AK1GE19RT3PK6","img_art/29.jpg","3","","","","","","","","","","","","","","","","","","","","","","","","",""
"1627","","image-button-response","223","936458","0.0-221.0-0.0","AK1GE19RT3PK6","img_art/29.jpg","0","","","","","","","","","","","","","","","","","","","","","","","","",""
"null","","html-keyboard-response","224","937463","0.0-222.0","AK1GE19RT3PK6","<p style=""font-size: 48px;"">+</p>","","","","","null","allTrialResponses","1000","1","25","img_art/29.jpg","-50","Too violent and bad colors.","Dalton,Richard,Carlos,Austin,Samuel,Aaron","i dont know how it makes me feel.,1,300,20","it's OK, no clue to what's going on but good use of light and dark,4,340,20","It feels like looking through layers of frustration.,19,80,20","Has a haunting feel to it,22,240,20","too challenging to comprehend,-28,400,20","I like the texture and colors and how it makes me feel. I like how it's different from other abstract art.,45,20,20","Samuel","too challenging to comprehend,-28,400,20","Austin","Has a haunting feel to it,22,240,20","Dalton","i dont know how it makes me feel.,1,300,20","3"
"3414","","survey-text","225","940917","0.0-223.0-0.0","AK1GE19RT3PK6","","","","{""Q0"":""table""}","","","","","","","","","","","","","","","","","","","","","","",""
"14541","","survey-text","226","955468","0.0-224.0-0.0","AK1GE19RT3PK6","","","","{""Q0"":""too abstract for me, don't like the colors either.""}","","","","","","","","","","","","","","","","","","","","","","",""
"2046.5","","image-slider-response","227","957523","0.0-225.0","AK1GE19RT3PK6","","","","","-50","","","","","","","","","","","","","","","","","","","","","",""
"null","","image-button-response","228","962539","0.0-226.0","AK1GE19RT3PK6","img_art/20.jpg","null","","","","","","","","","","","","","","","","","","","","","","","","",""
"1313","","image-button-response","229","963867","0.0-227.0","AK1GE19RT3PK6","img_art/20.jpg","4","","","","","","","","","","","","","","","","","","","","","","","","",""
"2787","","image-button-response","230","966667","0.0-228.0-0.0","AK1GE19RT3PK6","img_art/20.jpg","2","","","","","","","","","","","","","","","","","","","","","","","","",""
"3600","","image-button-response","231","970280","0.0-229.0-0.0","AK1GE19RT3PK6","img_art/20.jpg","0","","","","","","","","","","","","","","","","","","","","","","","","",""
"null","","html-keyboard-response","232","970785","0.0-230.0","AK1GE19RT3PK6","<p style=""font-size: 48px;"">+</p>","","","","","null","allTrialResponses","500","1","26","img_art/20.jpg","-50","too abstract for me, don't like the colors either.","Dalton,Jesse,Mitchell,Austin,Samuel,Isaac","make me feel like its a little country maybe a tractor and a skull head of a bull,1,300,20","I do at least like the dark colors blending,6,80,20","Interesting. Empty place, wondering what happened, leaving what you used to know.,10,180,20","This painting would make a great display art,50,240,20","crash after traffic causing grief,-11,400,20","It is abstract but it looks neat.,15,280,20","Samuel","crash after traffic causing grief,-11,400,20","Mitchell","Interesting. Empty place, wondering what happened, leaving what you used to know.,10,180,20","Dalton","make me feel like its a little country maybe a tractor and a skull head of a bull,1,300,20","3"
"9732","","survey-text","233","980547","0.0-231.0-0.0","AK1GE19RT3PK6","","","","{""Q0"":""Somewhat lively colors.""}","","","","","","","","","","","","","","","","","","","","","","",""
"2915.7000000029802","","image-slider-response","234","983473","0.0-232.0","AK1GE19RT3PK6","","","","","2","","","","","","","","","","","","","","","","","","","","","",""
"null","","image-button-response","235","988487","0.0-233.0","AK1GE19RT3PK6","img_art/24.jpg","null","","","","","","","","","","","","","","","","","","","","","","","","",""
"1562","","image-button-response","236","990062","0.0-234.0","AK1GE19RT3PK6","img_art/24.jpg","5","","","","","","","","","","","","","","","","","","","","","","","","",""
"1229","","image-button-response","237","991302","0.0-235.0-0.0","AK1GE19RT3PK6","img_art/24.jpg","1","","","","","","","","","","","","","","","","","","","","","","","","",""
"2171","","image-button-response","238","993491","0.0-236.0-0.0","AK1GE19RT3PK6","img_art/24.jpg","4","","","","","","","","","","","","","","","","","","","","","","","","",""
"null","","html-keyboard-response","239","994499","0.0-237.0","AK1GE19RT3PK6","<p style=""font-size: 48px;"">+</p>","","","","","null","allTrialResponses","1000","1","27","img_art/24.jpg","2","Somewhat lively colors.","Dalton,Miguel,Mitchell,Kevin,Samuel,Jared","i feel peace and wanting. i love waterfalls,50,300,20","Very cute amateur piece.,18,160,20","Nature, Peace, connected.,50,180,20","What a nice refreshing waterfall.,39,320,20","tranquility in the stream,34,400,20","i like that the water seems in motion,6,400,20","Jared","i like that the water seems in motion,6,400,20","Miguel","Very cute amateur piece.,18,160,20","Samuel","tranquility in the stream,34,400,20","3"
"8965","","survey-text","240","1003495","0.0-238.0-0.0","AK1GE19RT3PK6","","","","{""Q0"":""Too morbid for me.""}","","","","","","","","","","","","","","","","","","","","","","",""
"3737.10000000149","","image-slider-response","241","1007245","0.0-239.0","AK1GE19RT3PK6","","","","","-31","","","","","","","","","","","","","","","","","","","","","",""
"null","","image-button-response","242","1012258","0.0-240.0","AK1GE19RT3PK6","img_art/25.jpg","null","","","","","","","","","","","","","","","","","","","","","","","","",""
"976","","image-button-response","243","1013248","0.0-241.0","AK1GE19RT3PK6","img_art/25.jpg","1","","","","","","","","","","","","","","","","","","","","","","","","",""
"492","","image-button-response","244","1013756","0.0-242.0-0.0","AK1GE19RT3PK6","img_art/25.jpg","2","","","","","","","","","","","","","","","","","","","","","","","","",""
"5205","","image-button-response","245","1018976","0.0-243.0-0.0","AK1GE19RT3PK6","img_art/25.jpg","0","","","","","","","","","","","","","","","","","","","","","","","","",""
"null","","html-keyboard-response","246","1019484","0.0-244.0","AK1GE19RT3PK6","<p style=""font-size: 48px;"">+</p>","","","","","null","allTrialResponses","500","1","28","img_art/25.jpg","-31","Too morbid for me.","Luke,Miguel,Dustin,Brian,Samuel,Jared","the contrasting colors are very interesting,24,20,20","This is too simple,-22,160,20","Reminds me of ancient civilization art. I like the aqua color; soothing to me.,1,20,20","the color is pleasing and draws out the contrast of the lines,10,380,20","reminds me of burning man,18,400,20","the green is serene. the figure is scare crow like,7,400,20","Miguel","This is too simple,-22,160,20","Dustin","Reminds me of ancient civilization art. I like the aqua color; soothing to me.,1,20,20","Luke","the contrasting colors are very interesting,24,20,20","3"
"13138","","survey-text","247","1032654","0.0-245.0-0.0","AK1GE19RT3PK6","","","","{""Q0"":""Too simple and not enough color.""}","","","","","","","","","","","","","","","","","","","","","","",""
"2532.5999999940395","","image-slider-response","248","1035197","0.0-246.0","AK1GE19RT3PK6","","","","","-50","","","","","","","","","","","","","","","","","","","","","",""
"null","","image-button-response","249","1040211","0.0-247.0","AK1GE19RT3PK6","img_art/15.jpg","null","","","","","","","","","","","","","","","","","","","","","","","","",""
"606","","image-button-response","250","1040830","0.0-248.0","AK1GE19RT3PK6","img_art/15.jpg","2","","","","","","","","","","","","","","","","","","","","","","","","",""
"477","","image-button-response","251","1041322","0.0-249.0-0.0","AK1GE19RT3PK6","img_art/15.jpg","1","","","","","","","","","","","","","","","","","","","","","","","","",""
"1905","","image-button-response","252","1043244","0.0-250.0-0.0","AK1GE19RT3PK6","img_art/15.jpg","5","","","","","","","","","","","","","","","","","","","","","","","","",""
"null","","html-keyboard-response","253","1044751","0.0-251.0","AK1GE19RT3PK6","<p style=""font-size: 48px;"">+</p>","","","","","null","allTrialResponses","1500","1","29","img_art/15.jpg","-50","Too simple and not enough color.","Luke,Miguel,Dustin,James,Cameron,Travis","it looks like trees but they are up to interpretation,16,20,20","Simple but not good,-34,160,20","Too much black. I see weeds or dead/dying flowers.,-40,20,20","No opinion truthfully,1,380,20","This one reminds me of a postage stamp, but branches and leaves. Kind of fun.,15,60,20","Hate it...black dots.,-47,260,20","Dustin","Too much black. I see weeds or dead/dying flowers.,-40,20,20","Miguel","Simple but not good,-34,160,20","Travis","Hate it...black dots.,-47,260,20","3"
"11801","","survey-text","254","1056581","0.0-252.0-0.0","AK1GE19RT3PK6","","","","{""Q0"":""The colors and composition is fairly nice.""}","","","","","","","","","","","","","","","","","","","","","","",""
"4420","","image-slider-response","255","1061013","0.0-253.0","AK1GE19RT3PK6","","","","","30","","","","","","","","","","","","","","","","","","","","","",""
"null","","image-button-response","256","1066025","0.0-254.0","AK1GE19RT3PK6","img_art/23.jpg","null","","","","","","","","","","","","","","","","","","","","","","","","",""
"691","","image-button-response","257","1066731","0.0-255.0","AK1GE19RT3PK6","img_art/23.jpg","1","","","","","","","","","","","","","","","","","","","","","","","","",""
"409","","image-button-response","258","1067155","0.0-256.0-0.0","AK1GE19RT3PK6","img_art/23.jpg","0","","","","","","","","","","","","","","","","","","","","","","","","",""
"2250","","image-button-response","259","1069420","0.0-257.0-0.0","AK1GE19RT3PK6","img_art/23.jpg","3","","","","","","","","","","","","","","","","","","","","","","","","",""
"null","","html-keyboard-response","260","1070426","0.0-258.0","AK1GE19RT3PK6","<p style=""font-size: 48px;"">+</p>","","","","","null","allTrialResponses","1000","1","30","img_art/23.jpg","30","The colors and composition is fairly nice.","David,Miguel,Dustin,Spencer,Devon,Travis","I like the symmetrical design and how it portrays the liveliness of a musical environment.,30,340,20","Awesome abstraction love it.,30,160,20","I don't get it! the white in the middle of the speckled rainbow is confusing.,-10,20,20","Interesting, want to look at it more to identify,25,120,20","i cannot breath in this,-10,400,20","I had a very neutral feeling to this,no feelings at all.,1,260,20","Miguel","Awesome abstraction love it.,30,160,20","David","I like the symmetrical design and how it portrays the liveliness of a musical environment.,30,340,20","Spencer","Interesting, want to look at it more to identify,25,120,20","3"
"3880","","image-button-response_instructions","261","1074336","0.0-259.0","AK1GE19RT3PK6","","0","instructions","","","","","","","","","","","","","","","","","","","","","","","",""
"1167","","image-button-response","262","1075527","0.0-260.0","AK1GE19RT3PK6","","0","","","","","","","","","","","","","","","","","","","","","","","","",""
