"rt","url","trial_type","trial_index","time_elapsed","internal_node_id","participant_id","stimulus","button_pressed","Name","responses","response","key_press","variableName","fixationTime","condition","trial","photo","subjectRating","subjectResponse","agentsNames","agent_1_Response","agent_2_Response","agent_3_Response","agent_4_Response","agent_5_Response","agent_6_Response","kept_1_name","kept_1_response","kept_2_name","kept_2_response","kept_3_name","kept_3_response","errorCounter"
"6411","external_page_harvard.html","external-html","0","6613","0.0-0.0","AKK6H2YXK4RF6","","","","","","","","","","","","","","","","","","","","","","","","","","",""
"1454","","image-button-response","1","8071","0.0-1.0","AKK6H2YXK4RF6","","1","","","","","","","","","","","","","","","","","","","","","","","","",""
"1289","","image-button-response","2","9369","0.0-2.0-0.0","AKK6H2YXK4RF6","","1","phone","","","","","","","","","","","","","","","","","","","","","","","",""
"7450","","survey-text","3","16823","0.0-3.0-0.0","AKK6H2YXK4RF6","","","","{""Q0"":""AKK6H2YXK4RF6""}","","","","","","","","","","","","","","","","","","","","","","",""
"7651","","image-button-response_instructions","4","24478","0.0-4.0","AKK6H2YXK4RF6","","0","instructions","","","","","","","","","","","","","","","","","","","","","","","",""
"12141","","image-button-response_instructions","5","36622","0.0-5.0","AKK6H2YXK4RF6","img_art/ins/popularity/ins1.png","0","instructions","","","","","","","","","","","","","","","","","","","","","","","",""
"4381","","image-button-response_instructions","6","41008","0.0-6.0","AKK6H2YXK4RF6","img_art/ins/popularity/ins2.png","0","instructions","","","","","","","","","","","","","","","","","","","","","","","",""
"5763","","image-button-response_instructions","7","46774","0.0-7.0","AKK6H2YXK4RF6","img_art/ins/popularity/ins2Extreme.png","0","instructions","","","","","","","","","","","","","","","","","","","","","","","",""
"10025","","image-button-response_instructions","8","56802","0.0-8.0","AKK6H2YXK4RF6","img_art/ins/popularity/ins3KEEPpop.PNG","0","instructions","","","","","","","","","","","","","","","","","","","","","","","",""
"3384","","image-button-response_instructions","9","60189","0.0-9.0","AKK6H2YXK4RF6","img_art/ins/popularity/ins3ANamepop.PNG","0","instructions","","","","","","","","","","","","","","","","","","","","","","","",""
"5181","","image-button-response_instructions","10","65372","0.0-10.0","AKK6H2YXK4RF6","img_art/ins/popularity/ins3ARatingpop.png","0","instructions","","","","","","","","","","","","","","","","","","","","","","","",""
"2143","","image-button-response_instructions","11","67518","0.0-11.0","AKK6H2YXK4RF6","img_art/ins/popularity/ins3ATextpop.png","0","instructions","","","","","","","","","","","","","","","","","","","","","","","",""
"5264","","image-button-response_instructions","12","72784","0.0-12.0","AKK6H2YXK4RF6","img_art/ins/popularity/ins3ALikespop.png","0","instructions","","","","","","","","","","","","","","","","","","","","","","","",""
"11790","","image-button-response_instructions","13","84576","0.0-13.0","AKK6H2YXK4RF6","img_art/ins/popularity/ins3KEEPpop.PNG","0","instructions","","","","","","","","","","","","","","","","","","","","","","","",""
"20507","","image-button-response_instructions","14","105088","0.0-14.0","AKK6H2YXK4RF6","img_art/ins/popularity/ins3_5RED.png","0","instructions","","","","","","","","","","","","","","","","","","","","","","","",""
"7947","","image-button-response_instructions","15","113039","0.0-15.0","AKK6H2YXK4RF6","img_art/ins/popularity/ins3KEEPpop.PNG","0","instructions","","","","","","","","","","","","","","","","","","","","","","","",""
"8454","","image-button-response_instructions","16","121495","0.0-16.0","AKK6H2YXK4RF6","img_art/ins/popularity/ins4KEEPpop.PNG","0","instructions","","","","","","","","","","","","","","","","","","","","","","","",""
"11454","","image-button-response_instructions","17","132953","0.0-17.0","AKK6H2YXK4RF6","img_art/ins/popularity/ins5KEEPpop.PNG","0","instructions","","","","","","","","","","","","","","","","","","","","","","","",""
"1558","","image-button-response_instructions","18","134513","0.0-18.0","AKK6H2YXK4RF6","","0","instructions","","","","","","","","","","","","","","","","","","","","","","","",""
"6516","","survey-text","19","141070","0.0-19.0-0.0","AKK6H2YXK4RF6","","","","{""Q0"":""but""}","","","","","","","","","","","","","","","","","","","","","","",""
"16818","","survey-text","20","157890","0.0-20.0-0.0","AKK6H2YXK4RF6","","","","{""Q0"":""too messy and chaotic for my taste""}","","","","","","","","","","","","","","","","","","","","","","",""
"3000","","image-slider-response","21","160894","0.0-21.0","AKK6H2YXK4RF6","","","","","-34","","","","","","","","","","","","","","","","","","","","","",""
"null","","image-button-response","22","165906","0.0-22.0","AKK6H2YXK4RF6","img_art/ins/1.jpg","null","","","","","","","","","","","","","","","","","","","","","","","","",""
"9602","","image-button-response","23","175509","0.0-23.0","AKK6H2YXK4RF6","img_art/ins/1.jpg","2","","","","","","","","","","","","","","","","","","","","","","","","",""
"2402","","image-button-response","24","177915","0.0-24.0-0.0","AKK6H2YXK4RF6","img_art/ins/1.jpg","3","","","","","","","","","","","","","","","","","","","","","","","","",""
"5973","","image-button-response","25","183893","0.0-25.0-0.0","AKK6H2YXK4RF6","img_art/ins/1.jpg","0","","","","","","","","","","","","","","","","","","","","","","","","",""
"null","","html-keyboard-response","26","185400","0.0-26.0","AKK6H2YXK4RF6","<p style=""font-size: 48px;"">+</p>","","","","","null","allTrialResponses","1500","1","-2","img_art/ins/1.jpg","-34","too messy and chaotic for my taste","Allison,Ashley,Beth,Dora,Erika,Jen","looks like a lot of things going on in the mist,20,20,20","I just don't get why these type of art would be popular,-32,40,20","This color reminds me of poo,-46,60,20","looks like what my niece in 3rd grade did this afternoon,-50,80,20","I like the sophisticated brushwork,40,100,20","It reminds me of a candy land dream I had,36,120,20","Beth","This color reminds me of poo,-46,60,20","Dora","looks like what my niece in 3rd grade did this afternoon,-50,80,20","Allison","looks like a lot of things going on in the mist,20,20,20","0"
"20997","","survey-text","27","206414","0.0-27.0-0.0","AKK6H2YXK4RF6","","","","{""Q0"":""it looks like a school bus drove into a wall""}","","","","","","","","","","","","","","","","","","","","","","",""
"4018","","image-slider-response","28","210434","0.0-28.0","AKK6H2YXK4RF6","","","","","-45","","","","","","","","","","","","","","","","","","","","","",""
"null","","image-button-response","29","215439","0.0-29.0","AKK6H2YXK4RF6","img_art/ins/2.jpg","null","","","","","","","","","","","","","","","","","","","","","","","","",""
"1275","","image-button-response","30","216714","0.0-30.0","AKK6H2YXK4RF6","img_art/ins/2.jpg","3","","","","","","","","","","","","","","","","","","","","","","","","",""
"5645","","image-button-response","31","222362","0.0-31.0-0.0","AKK6H2YXK4RF6","img_art/ins/2.jpg","4","","","","","","","","","","","","","","","","","","","","","","","","",""
"4728","","image-button-response","32","227094","0.0-32.0-0.0","AKK6H2YXK4RF6","img_art/ins/2.jpg","0","","","","","","","","","","","","","","","","","","","","","","","","",""
"null","","html-keyboard-response","33","227596","0.0-33.0","AKK6H2YXK4RF6","<p style=""font-size: 48px;"">+</p>","","","","","null","allTrialResponses","500","1","-1","img_art/ins/2.jpg","-45","it looks like a school bus drove into a wall","Allison,Jenna,Beth,Dora,Kara,Katie","I don't have strong feelings about this,10,20,20","One of my pet peevs,-48,140,20","meaningless painting,-45,60,20","looks too angry,-50,80,20","I like the blocks of color arrangements,30,160,20","too much color!,-28,180,20","Dora","looks too angry,-50,80,20","Kara","I like the blocks of color arrangements,30,160,20","Allison","I don't have strong feelings about this,10,20,20","0"
"18885","","survey-text","34","246490","0.0-34.0-0.0","AKK6H2YXK4RF6","","","","{""Q0"":""It's cool and refreshing like being in an ice cave""}","","","","","","","","","","","","","","","","","","","","","","",""
"17069","","image-slider-response","35","263563","0.0-35.0","AKK6H2YXK4RF6","","","","","33","","","","","","","","","","","","","","","","","","","","","",""
"null","","image-button-response","36","268568","0.0-36.0","AKK6H2YXK4RF6","img_art/ins/3.jpg","null","","","","","","","","","","","","","","","","","","","","","","","","",""
"3253","","image-button-response","37","271823","0.0-37.0","AKK6H2YXK4RF6","img_art/ins/3.jpg","4","","","","","","","","","","","","","","","","","","","","","","","","",""
"1276","","image-button-response","38","273102","0.0-38.0-0.0","AKK6H2YXK4RF6","img_art/ins/3.jpg","2","","","","","","","","","","","","","","","","","","","","","","","","",""
"1033","","image-button-response","39","274138","0.0-39.0-0.0","AKK6H2YXK4RF6","img_art/ins/3.jpg","0","","","","","","","","","","","","","","","","","","","","","","","","",""
"null","","html-keyboard-response","40","275140","0.0-40.0","AKK6H2YXK4RF6","<p style=""font-size: 48px;"">+</p>","","","","","null","allTrialResponses","1000","1","0","img_art/ins/3.jpg","33","It's cool and refreshing like being in an ice cave","Allison,Leslie,Mary,Dora,Kara,Rose","enjoy the different shades of blue,22,20,20","It's an alright work,15,200,20","I like the overlapping of brushes,41,220,20","My worst nightmare,-42,80,20","calming blue is very nice,36,160,20","My daily routine, it's depressing,-20,240,20","Kara","calming blue is very nice,36,160,20","Mary","I like the overlapping of brushes,41,220,20","Allison","enjoy the different shades of blue,22,20,20","0"
"4043","","image-button-response_instructions","41","279189","0.0-41.0","AKK6H2YXK4RF6","","0","instructions","","","","","","","","","","","","","","","","","","","","","","","",""
"29872","","survey-likert","42","309065","0.0-42.0-0.0","AKK6H2YXK4RF6","","","","{""Q0"":"""",""Q1"":0,""Q2"":1}","","","","","","","","","","","","","","","","","","","","","","",""
"4304","","survey-text","43","313390","0.0-43.0-0.0","AKK6H2YXK4RF6","","","","{""Q0"":""rock""}","","","","","","","","","","","","","","","","","","","","","","",""
"17845","","survey-text","44","331237","0.0-44.0-0.0","AKK6H2YXK4RF6","","","","{""Q0"":""looks like a bird standing on a wall, I like it""}","","","","","","","","","","","","","","","","","","","","","","",""
"4338","","image-slider-response","45","335578","0.0-45.0","AKK6H2YXK4RF6","","","","","44","","","","","","","","","","","","","","","","","","","","","",""
"null","","image-button-response","46","340603","0.0-46.0","AKK6H2YXK4RF6","img_art/6.jpg","null","","","","","","","","","","","","","","","","","","","","","","","","",""
"4351","","image-button-response","47","344957","0.0-47.0","AKK6H2YXK4RF6","img_art/6.jpg","4","","","","","","","","","","","","","","","","","","","","","","","","",""
"2661","","image-button-response","48","347619","0.0-48.0-0.0","AKK6H2YXK4RF6","img_art/6.jpg","0","","","","","","","","","","","","","","","","","","","","","","","","",""
"5119","","image-button-response","49","352743","0.0-49.0-0.0","AKK6H2YXK4RF6","img_art/6.jpg","5","","","","","","","","","","","","","","","","","","","","","","","","",""
"null","","html-keyboard-response","50","354250","0.0-50.0","AKK6H2YXK4RF6","<p style=""font-size: 48px;"">+</p>","","","","","null","allTrialResponses","1500","1","1","img_art/6.jpg","44","looks like a bird standing on a wall, I like it","Alyssa,Makayla,Bailey,Abigail,Andrea,Sydney","It makes me stop and think about what the artist is trying to say.It creates a feeling of solitude and tranqulity,30,160,20","Don't like the black space,2,80,20","Not my favorite, but I like the empty vibe and the imagination it invokes. A skinny girl with long legs, perhaps, looking over a cliff,9,360,20","This picture is weird,-6,20,20","So forlorn, and beauty amid desolation.,25,240,20","This piece reminds me of the lorax.,5,320,20","Andrea","So forlorn, and beauty amid desolation.,25,240,20","Alyssa","It makes me stop and think about what the artist is trying to say.It creates a feeling of solitude and tranqulity,30,160,20","Sydney","This piece reminds me of the lorax.,5,320,20","0"
"14827","","survey-text","51","369086","0.0-51.0-0.0","AKK6H2YXK4RF6","","","","{""Q0"":""looks like gum stuck to a wall""}","","","","","","","","","","","","","","","","","","","","","","",""
"3499","","image-slider-response","52","372590","0.0-52.0","AKK6H2YXK4RF6","","","","","-30","","","","","","","","","","","","","","","","","","","","","",""
"3294","","image-button-response","53","377596","0.0-53.0","AKK6H2YXK4RF6","img_art/7.jpg","0","","","","","","","","","","","","","","","","","","","","","","","","",""
"2083","","image-button-response","54","379684","0.0-54.0","AKK6H2YXK4RF6","img_art/7.jpg","1","","","","","","","","","","","","","","","","","","","","","","","","",""
"1848","","image-button-response","55","381536","0.0-55.0-0.0","AKK6H2YXK4RF6","img_art/7.jpg","2","","","","","","","","","","","","","","","","","","","","","","","","",""
"1823","","image-button-response","56","383364","0.0-56.0-0.0","AKK6H2YXK4RF6","img_art/7.jpg","4","","","","","","","","","","","","","","","","","","","","","","","","",""
"null","","html-keyboard-response","57","384868","0.0-57.0","AKK6H2YXK4RF6","<p style=""font-size: 48px;"">+</p>","","","","","null","allTrialResponses","1500","1","2","img_art/7.jpg","-30","looks like gum stuck to a wall","Alyssa,Mary,Kelsey,Sabrina,Andrea,Sydney","It looks like someone took a picture of a muddy ground and called it art.,-41,160,20","This reminds me of a close up photo of a stone wall.,-19,180,20","its like oatmeal with granola,-47,240,20","Not getting the vibe i would like from this,-30,120,20","Reminds me of mold. Repulsive.,-10,240,20","This piece is really simple but the colors and texture work well together.,20,320,20","Mary","This reminds me of a close up photo of a stone wall.,-19,180,20","Kelsey","its like oatmeal with granola,-47,240,20","Andrea","Reminds me of mold. Repulsive.,-10,240,20","0"
"16233","","survey-text","58","401105","0.0-58.0-0.0","AKK6H2YXK4RF6","","","","{""Q0"":""is this supposed to be indoors or outdoors""}","","","","","","","","","","","","","","","","","","","","","","",""
"4636","","image-slider-response","59","405744","0.0-59.0","AKK6H2YXK4RF6","","","","","4","","","","","","","","","","","","","","","","","","","","","",""
"null","","image-button-response","60","410749","0.0-60.0","AKK6H2YXK4RF6","img_art/17.jpg","null","","","","","","","","","","","","","","","","","","","","","","","","",""
"3166","","image-button-response","61","413918","0.0-61.0","AKK6H2YXK4RF6","img_art/17.jpg","2","","","","","","","","","","","","","","","","","","","","","","","","",""
"1074","","image-button-response","62","414994","0.0-62.0-0.0","AKK6H2YXK4RF6","img_art/17.jpg","0","","","","","","","","","","","","","","","","","","","","","","","","",""
"1520","","image-button-response","63","416518","0.0-63.0-0.0","AKK6H2YXK4RF6","img_art/17.jpg","0","","","","","","","","","","","","","","","","","","","","","","","","",""
"8585","","image-button-response","64","429885","0.0-63.1-0.1","AKK6H2YXK4RF6","img_art/17.jpg","1","","","","","","","","","","","","","","","","","","","","","","","","",""
"null","","html-keyboard-response","65","431392","0.0-64.0","AKK6H2YXK4RF6","<p style=""font-size: 48px;"">+</p>","","","","","null","allTrialResponses","1500","1","3","img_art/17.jpg","4","is this supposed to be indoors or outdoors","Briana,Mary,Kelsey,Anna,Andrea,Autumn","It looks unfinished,-7,400,20","The colors are nice and soft but not very complimentary.,7,180,20","this ones alright,10,240,20","it brings a clear picture to my minds eye:,45,300,20","A coming storm but I think I would appreciate it more with more contrast.,-12,240,20","Looks awesome .,33,340,20","Kelsey","this ones alright,10,240,20","Briana","It looks unfinished,-7,400,20","Mary","The colors are nice and soft but not very complimentary.,7,180,20","2"
"17726","","survey-text","66","449129","0.0-65.0-0.0","AKK6H2YXK4RF6","","","","{""Q0"":""looks like you gave a toddler a red marker""}","","","","","","","","","","","","","","","","","","","","","","",""
"4259","","image-slider-response","67","453391","0.0-66.0","AKK6H2YXK4RF6","","","","","-39","","","","","","","","","","","","","","","","","","","","","",""
"null","","image-button-response","68","458401","0.0-67.0","AKK6H2YXK4RF6","img_art/3.jpg","null","","","","","","","","","","","","","","","","","","","","","","","","",""
"1604","","image-button-response","69","460008","0.0-68.0","AKK6H2YXK4RF6","img_art/3.jpg","2","","","","","","","","","","","","","","","","","","","","","","","","",""
"1529","","image-button-response","70","461542","0.0-69.0-0.0","AKK6H2YXK4RF6","img_art/3.jpg","4","","","","","","","","","","","","","","","","","","","","","","","","",""
"3831","","image-button-response","71","465376","0.0-70.0-0.0","AKK6H2YXK4RF6","img_art/3.jpg","3","","","","","","","","","","","","","","","","","","","","","","","","",""
"null","","html-keyboard-response","72","466885","0.0-71.0","AKK6H2YXK4RF6","<p style=""font-size: 48px;"">+</p>","","","","","null","allTrialResponses","1500","1","4","img_art/3.jpg","-39","looks like you gave a toddler a red marker","Briana,Mary,Kelsey,Leslie,Cheyenne,Jenna","Sharp peaks look like sharp teeth,-37,400,20","I usually don't like red. Red in this angry piece is very fitting.,19,180,20","just scribbles, not pleasing,-30,240,20","It looks like the artist was trying too hard to make it chaotic and emotional.,-25,380,20","Don't see what the purpose is.,-31,200,20","unique & stylized. interesting. another one I could keep staring at.,50,360,20","Kelsey","just scribbles, not pleasing,-30,240,20","Cheyenne","Don't see what the purpose is.,-31,200,20","Leslie","It looks like the artist was trying too hard to make it chaotic and emotional.,-25,380,20","2"
"12860","","survey-text","73","479752","0.0-72.0-0.0","AKK6H2YXK4RF6","","","","{""Q0"":""idk why but I see a shipwreck""}","","","","","","","","","","","","","","","","","","","","","","",""
"5160","","image-slider-response","74","484914","0.0-73.0","AKK6H2YXK4RF6","","","","","1","","","","","","","","","","","","","","","","","","","","","",""
"null","","image-button-response","75","489920","0.0-74.0","AKK6H2YXK4RF6","img_art/18.jpg","null","","","","","","","","","","","","","","","","","","","","","","","","",""
"1868","","image-button-response","76","491789","0.0-75.0","AKK6H2YXK4RF6","img_art/18.jpg","1","","","","","","","","","","","","","","","","","","","","","","","","",""
"2091","","image-button-response","77","493882","0.0-76.0-0.0","AKK6H2YXK4RF6","img_art/18.jpg","0","","","","","","","","","","","","","","","","","","","","","","","","",""
"5080","","image-button-response","78","498964","0.0-77.0-0.0","AKK6H2YXK4RF6","img_art/18.jpg","5","","","","","","","","","","","","","","","","","","","","","","","","",""
"null","","html-keyboard-response","79","499969","0.0-78.0","AKK6H2YXK4RF6","<p style=""font-size: 48px;"">+</p>","","","","","null","allTrialResponses","1000","1","5","img_art/18.jpg","1","idk why but I see a shipwreck","Brianna,Morgan,Kelsey,Leslie,Cheyenne,Stephanie","Very eerie and it's spooky,11,20,20","Ghostly sea adventure.,20,380,20","its messy, it seems angry,-21,240,20","This is a very energetic painting, and brings to mind scenes of battle.,50,380,20","Too abstract to me,-30,200,20","It made me think of a car crash,-39,300,20","Morgan","Ghostly sea adventure.,20,380,20","Brianna","Very eerie and it's spooky,11,20,20","Stephanie","It made me think of a car crash,-39,300,20","2"
"3475","","survey-text","80","503462","0.0-79.0-0.0","AKK6H2YXK4RF6","","","","{""Q0"":""sky""}","","","","","","","","","","","","","","","","","","","","","","",""
"16585","","survey-text","81","520049","0.0-80.0-0.0","AKK6H2YXK4RF6","","","","{""Q0"":""whatever this is I hate it""}","","","","","","","","","","","","","","","","","","","","","","",""
"3925","","image-slider-response","82","523976","0.0-81.0","AKK6H2YXK4RF6","","","","","-50","","","","","","","","","","","","","","","","","","","","","",""
"null","","image-button-response","83","528982","0.0-82.0","AKK6H2YXK4RF6","img_art/8.jpg","null","","","","","","","","","","","","","","","","","","","","","","","","",""
"2248","","image-button-response","84","531232","0.0-83.0","AKK6H2YXK4RF6","img_art/8.jpg","0","","","","","","","","","","","","","","","","","","","","","","","","",""
"3505","","image-button-response","85","534740","0.0-84.0-0.0","AKK6H2YXK4RF6","img_art/8.jpg","5","","","","","","","","","","","","","","","","","","","","","","","","",""
"4075","","image-button-response","86","538819","0.0-85.0-0.0","AKK6H2YXK4RF6","img_art/8.jpg","3","","","","","","","","","","","","","","","","","","","","","","","","",""
"null","","html-keyboard-response","87","539822","0.0-86.0","AKK6H2YXK4RF6","<p style=""font-size: 48px;"">+</p>","","","","","null","allTrialResponses","1000","1","6","img_art/8.jpg","-50","whatever this is I hate it","Brianna,Morgan,Amy,Kaitlyn,Julia,Stephanie","It's very odd and I don't really like it,-30,20,20","Falling into a city's heart.,10,380,20","The definition and the colors give make this painting accessible and thought provoking.,30,220,20","There are a lot of different interesting elements in the picture.,12,80,20","it's a little too classical for my tastes,-25,40,20","I like the colors and geometrical shapes but the face in the sky makes it look scary,-10,300,20","Brianna","It's very odd and I don't really like it,-30,20,20","Stephanie","I like the colors and geometrical shapes but the face in the sky makes it look scary,-10,300,20","Kaitlyn","There are a lot of different interesting elements in the picture.,12,80,20","2"
"9595","","survey-text","88","549423","0.0-87.0-0.0","AKK6H2YXK4RF6","","","","{""Q0"":""looks like 80s hotel art""}","","","","","","","","","","","","","","","","","","","","","","",""
"7728","","image-slider-response","89","557235","0.0-88.0","AKK6H2YXK4RF6","","","","","5","","","","","","","","","","","","","","","","","","","","","",""
"null","","image-button-response","90","562241","0.0-89.0","AKK6H2YXK4RF6","img_art/9.jpg","null","","","","","","","","","","","","","","","","","","","","","","","","",""
"2249","","image-button-response","91","564492","0.0-90.0","AKK6H2YXK4RF6","img_art/9.jpg","0","","","","","","","","","","","","","","","","","","","","","","","","",""
"2013","","image-button-response","92","566507","0.0-91.0-0.0","AKK6H2YXK4RF6","img_art/9.jpg","3","","","","","","","","","","","","","","","","","","","","","","","","",""
"1738","","image-button-response","93","568251","0.0-92.0-0.0","AKK6H2YXK4RF6","img_art/9.jpg","1","","","","","","","","","","","","","","","","","","","","","","","","",""
"null","","html-keyboard-response","94","569758","0.0-93.0","AKK6H2YXK4RF6","<p style=""font-size: 48px;"">+</p>","","","","","null","allTrialResponses","1500","1","7","img_art/9.jpg","5","looks like 80s hotel art","Brianna,Mikayla,Vanessa,Kaitlyn,Alexandra,Stephanie","This has some of my favorite colors, and I like it,21,20,20","Looks like a crayon drawing.,21,300,20","It's too abstract for my taste. I wish there were more definition.,-9,380,20","Focal point is interesting,2,80,20","This picture is too busy and ugly,-20,60,20","Someone sleeping in a cave. Dont like the scribble look.,-30,300,20","Brianna","This has some of my favorite colors, and I like it,21,20,20","Kaitlyn","Focal point is interesting,2,80,20","Mikayla","Looks like a crayon drawing.,21,300,20","2"
"14255","","survey-text","95","584018","0.0-94.0-0.0","AKK6H2YXK4RF6","","","","{""Q0"":""I see a key and that's about it""}","","","","","","","","","","","","","","","","","","","","","","",""
"6645","","image-slider-response","96","590665","0.0-95.0","AKK6H2YXK4RF6","","","","","-15","","","","","","","","","","","","","","","","","","","","","",""
"null","","image-button-response","97","595672","0.0-96.0","AKK6H2YXK4RF6","img_art/22.jpg","null","","","","","","","","","","","","","","","","","","","","","","","","",""
"2339","","image-button-response","98","598013","0.0-97.0","AKK6H2YXK4RF6","img_art/22.jpg","4","","","","","","","","","","","","","","","","","","","","","","","","",""
"1303","","image-button-response","99","599318","0.0-98.0-0.0","AKK6H2YXK4RF6","img_art/22.jpg","2","","","","","","","","","","","","","","","","","","","","","","","","",""
"3069","","image-button-response","100","602389","0.0-99.0-0.0","AKK6H2YXK4RF6","img_art/22.jpg","1","","","","","","","","","","","","","","","","","","","","","","","","",""
"null","","html-keyboard-response","101","602891","0.0-100.0","AKK6H2YXK4RF6","<p style=""font-size: 48px;"">+</p>","","","","","null","allTrialResponses","500","1","8","img_art/22.jpg","-15","I see a key and that's about it","Brianna,Mikayla,Crystal,Kaitlyn,Michaela,Sophia","Like the black key and the rainbow color theme.,31,20,20","So colorful i love it!,22,300,20","Beautiful use of chalk or pastels. Love the abstract nature.,35,300,20","Would be better if random black object was not present,11,80,20","I like the use of primary colors in an interesting way,29,260,20","I like this one. There is a lot to see if you keep looking for it.,27,280,20","Michaela","I like the use of primary colors in an interesting way,29,260,20","Crystal","Beautiful use of chalk or pastels. Love the abstract nature.,35,300,20","Mikayla","So colorful i love it!,22,300,20","2"
"16484","","survey-text","102","619383","0.0-101.0-0.0","AKK6H2YXK4RF6","","","","{""Q0"":""It reminds me of a cave drawing""}","","","","","","","","","","","","","","","","","","","","","","",""
"4189","","image-slider-response","103","623576","0.0-102.0","AKK6H2YXK4RF6","","","","","3","","","","","","","","","","","","","","","","","","","","","",""
"null","","image-button-response","104","628586","0.0-103.0","AKK6H2YXK4RF6","img_art/27.jpg","null","","","","","","","","","","","","","","","","","","","","","","","","",""
"3190","","image-button-response","105","631777","0.0-104.0","AKK6H2YXK4RF6","img_art/27.jpg","1","","","","","","","","","","","","","","","","","","","","","","","","",""
"1826","","image-button-response","106","633605","0.0-105.0-0.0","AKK6H2YXK4RF6","img_art/27.jpg","5","","","","","","","","","","","","","","","","","","","","","","","","",""
"4280","","image-button-response","107","637888","0.0-106.0-0.0","AKK6H2YXK4RF6","img_art/27.jpg","4","","","","","","","","","","","","","","","","","","","","","","","","",""
"null","","html-keyboard-response","108","638892","0.0-107.0","AKK6H2YXK4RF6","<p style=""font-size: 48px;"">+</p>","","","","","null","allTrialResponses","1000","1","9","img_art/27.jpg","3","It reminds me of a cave drawing","Brooke,Mikayla,Crystal,Hailey,Michaela,Megan","Like it, autumn colors, trees and foliage scene.,25,60,20","It kinda reminds me of sushi.,16,300,20","Muddied and directionless. Like someone dragged a brush across the paper for the sake of doing something.,-50,300,20","fruity and sweet. warm and juicy,10,200,20","It looks like a kid colored a picture and an adult added to it,19,260,20","Nice back ground with childish scribble on top,-30,200,20","Mikayla","It kinda reminds me of sushi.,16,300,20","Megan","Nice back ground with childish scribble on top,-30,200,20","Michaela","It looks like a kid colored a picture and an adult added to it,19,260,20","2"
"9933","","survey-text","109","648834","0.0-108.0-0.0","AKK6H2YXK4RF6","","","","{""Q0"":""I like this a lot and idk why""}","","","","","","","","","","","","","","","","","","","","","","",""
"4431","","image-slider-response","110","653270","0.0-109.0","AKK6H2YXK4RF6","","","","","50","","","","","","","","","","","","","","","","","","","","","",""
"null","","image-button-response","111","658276","0.0-110.0","AKK6H2YXK4RF6","img_art/5.jpg","null","","","","","","","","","","","","","","","","","","","","","","","","",""
"1203","","image-button-response","112","659480","0.0-111.0","AKK6H2YXK4RF6","img_art/5.jpg","2","","","","","","","","","","","","","","","","","","","","","","","","",""
"1083","","image-button-response","113","660567","0.0-112.0-0.0","AKK6H2YXK4RF6","img_art/5.jpg","1","","","","","","","","","","","","","","","","","","","","","","","","",""
"1652","","image-button-response","114","662224","0.0-113.0-0.0","AKK6H2YXK4RF6","img_art/5.jpg","4","","","","","","","","","","","","","","","","","","","","","","","","",""
"null","","html-keyboard-response","115","662727","0.0-114.0","AKK6H2YXK4RF6","<p style=""font-size: 48px;"">+</p>","","","","","null","allTrialResponses","500","1","10","img_art/5.jpg","50","I like this a lot and idk why","Katelyn,Mikayla,Kimberly,Sara,Michaela,Megan","I just dont get it. Means very little to me,-22,100,20","I love the yellow! It really pops!,30,300,20","It feels positive and kind of uplifting,24,260,20","It looks random,-10,160,20","Pretty simple, I'm not sure what it's supposed to mean,14,260,20","Cop out, easy money for artist for a 4 min piece,-29,200,20","Kimberly","It feels positive and kind of uplifting,24,260,20","Mikayla","I love the yellow! It really pops!,30,300,20","Michaela","Pretty simple, I'm not sure what it's supposed to mean,14,260,20","2"
"4209","","survey-text","116","666958","0.0-115.0-0.0","AKK6H2YXK4RF6","","","","{""Q0"":""our""}","","","","","","","","","","","","","","","","","","","","","","",""
"24379","","survey-text","117","691340","0.0-116.0-0.0","AKK6H2YXK4RF6","","","","{""Q0"":""It looks like one of those apps that makes your photo look like a painting""}","","","","","","","","","","","","","","","","","","","","","","",""
"4496","","image-slider-response","118","695837","0.0-117.0","AKK6H2YXK4RF6","","","","","4","","","","","","","","","","","","","","","","","","","","","",""
"null","","image-button-response","119","700843","0.0-118.0","AKK6H2YXK4RF6","img_art/20.jpg","null","","","","","","","","","","","","","","","","","","","","","","","","",""
"1571","","image-button-response","120","702415","0.0-119.0","AKK6H2YXK4RF6","img_art/20.jpg","5","","","","","","","","","","","","","","","","","","","","","","","","",""
"1208","","image-button-response","121","703626","0.0-120.0-0.0","AKK6H2YXK4RF6","img_art/20.jpg","4","","","","","","","","","","","","","","","","","","","","","","","","",""
"3550","","image-button-response","122","707180","0.0-121.0-0.0","AKK6H2YXK4RF6","img_art/20.jpg","2","","","","","","","","","","","","","","","","","","","","","","","","",""
"null","","html-keyboard-response","123","708686","0.0-122.0","AKK6H2YXK4RF6","<p style=""font-size: 48px;"">+</p>","","","","","null","allTrialResponses","1500","1","11","img_art/20.jpg","4","It looks like one of those apps that makes your photo look like a painting","Kathryn,Mikayla,Kimberly,Kristen,Michaela,Cynthia","This looks like a ruin of what was once a thriving city.,-9,140,20","Kinda freaks me out.,-40,300,20","Something bad has happened TO reality,-23,260,20","danger, car crash, stressful,-12,280,20","I can't tell what's going on but I like the colors,12,260,20","Curious about what lies here,10,320,20","Cynthia","Curious about what lies here,10,320,20","Michaela","I can't tell what's going on but I like the colors,12,260,20","Kimberly","Something bad has happened TO reality,-23,260,20","2"
"11109","","survey-text","124","719807","0.0-123.0-0.0","AKK6H2YXK4RF6","","","","{""Q0"":""all I can see is mustard""}","","","","","","","","","","","","","","","","","","","","","","",""
"3396","","image-slider-response","125","723205","0.0-124.0","AKK6H2YXK4RF6","","","","","-22","","","","","","","","","","","","","","","","","","","","","",""
"null","","image-button-response","126","728210","0.0-125.0","AKK6H2YXK4RF6","img_art/4.jpg","null","","","","","","","","","","","","","","","","","","","","","","","","",""
"1701","","image-button-response","127","729913","0.0-126.0","AKK6H2YXK4RF6","img_art/4.jpg","5","","","","","","","","","","","","","","","","","","","","","","","","",""
"1671","","image-button-response","128","731588","0.0-127.0-0.0","AKK6H2YXK4RF6","img_art/4.jpg","3","","","","","","","","","","","","","","","","","","","","","","","","",""
"5721","","image-button-response","129","737312","0.0-128.0-0.0","AKK6H2YXK4RF6","img_art/4.jpg","1","","","","","","","","","","","","","","","","","","","","","","","","",""
"null","","html-keyboard-response","130","738818","0.0-129.0","AKK6H2YXK4RF6","<p style=""font-size: 48px;"">+</p>","","","","","null","allTrialResponses","1500","1","12","img_art/4.jpg","-22","all I can see is mustard","Dominique,Emily,Kimberly,Cassidy,Michaela,Cynthia","I like it not sure much of how I feel about it,7,400,20","Looks like a child did it.,-42,40,20","It's ok, theres nothing that draws me away from it I guess,0,260,20","Hate the color, and just do not get the point.,-13,140,20","It reminds me of something a kid would make for their parents,13,260,20","creepy as it looks like fingernails,-23,320,20","Cynthia","creepy as it looks like fingernails,-23,320,20","Cassidy","Hate the color, and just do not get the point.,-13,140,20","Emily","Looks like a child did it.,-42,40,20","2"
"14553","","survey-text","131","753379","0.0-130.0-0.0","AKK6H2YXK4RF6","","","","{""Q0"":""a very bad painting of a waterfall""}","","","","","","","","","","","","","","","","","","","","","","",""
"6992","","image-slider-response","132","760373","0.0-131.0","AKK6H2YXK4RF6","","","","","-23","","","","","","","","","","","","","","","","","","","","","",""
"null","","image-button-response","133","765382","0.0-132.0","AKK6H2YXK4RF6","img_art/24.jpg","null","","","","","","","","","","","","","","","","","","","","","","","","",""
"3447","","image-button-response","134","768831","0.0-133.0","AKK6H2YXK4RF6","img_art/24.jpg","3","","","","","","","","","","","","","","","","","","","","","","","","",""
"3222","","image-button-response","135","772057","0.0-134.0-0.0","AKK6H2YXK4RF6","img_art/24.jpg","4","","","","","","","","","","","","","","","","","","","","","","","","",""
"4405","","image-button-response","136","776464","0.0-135.0-0.0","AKK6H2YXK4RF6","img_art/24.jpg","1","","","","","","","","","","","","","","","","","","","","","","","","",""
"null","","html-keyboard-response","137","777974","0.0-136.0","AKK6H2YXK4RF6","<p style=""font-size: 48px;"">+</p>","","","","","null","allTrialResponses","1500","1","13","img_art/24.jpg","-23","a very bad painting of a waterfall","Diana,Emily,Amber,Cassidy,Angela,Cynthia","This is stunning. I love how the brown, red and oranges are blended in together.,40,380,20","It's not super high uality  but there is some skill and talent in it I see.,15,40,20","peaceful and calm yet joyous.,50,200,20","I don't even know. It's just kind of meh,1,140,20","Love the colors in this work, and the sense of motion in the water,36,260,20","Interested in visiting this place,18,320,20","Cassidy","I don't even know. It's just kind of meh,1,140,20","Angela","Love the colors in this work, and the sense of motion in the water,36,260,20","Emily","It's not super high uality  but there is some skill and talent in it I see.,15,40,20","2"
"27121","","survey-text","138","805106","0.0-137.0-0.0","AKK6H2YXK4RF6","","","","{""Q0"":""looks like a child's finger painting""}","","","","","","","","","","","","","","","","","","","","","","",""
"3244","","image-slider-response","139","808355","0.0-138.0","AKK6H2YXK4RF6","","","","","-35","","","","","","","","","","","","","","","","","","","","","",""
"null","","image-button-response","140","813361","0.0-139.0","AKK6H2YXK4RF6","img_art/2.jpg","null","","","","","","","","","","","","","","","","","","","","","","","","",""
"2187","","image-button-response","141","815550","0.0-140.0","AKK6H2YXK4RF6","img_art/2.jpg","2","","","","","","","","","","","","","","","","","","","","","","","","",""
"2639","","image-button-response","142","818190","0.0-141.0-0.0","AKK6H2YXK4RF6","img_art/2.jpg","1","","","","","","","","","","","","","","","","","","","","","","","","",""
"1497","","image-button-response","143","819690","0.0-142.0-0.0","AKK6H2YXK4RF6","img_art/2.jpg","4","","","","","","","","","","","","","","","","","","","","","","","","",""
"null","","html-keyboard-response","144","820194","0.0-143.0","AKK6H2YXK4RF6","<p style=""font-size: 48px;"">+</p>","","","","","null","allTrialResponses","500","1","14","img_art/2.jpg","-35","looks like a child's finger painting","Elizabeth,Emily,Monica,Cassidy,Angela,Courtney","Good color pallette,12,20,20","Random colors and shapes mashed together. Nothing artistic, but better than some of the other ones.,-37,40,20","I like the blue color in the center but that's it, the green is a gross color,-3,360,20","It's interesting. The chunks of black here and there are nice,13,140,20","Only like the blues and teals in this. The rest is unappealing.,-15,260,20","That looks look a cartoon character of some kind.,11,280,20","Monica","I like the blue color in the center but that's it, the green is a gross color,-3,360,20","Emily","Random colors and shapes mashed together. Nothing artistic, but better than some of the other ones.,-37,40,20","Angela","Only like the blues and teals in this. The rest is unappealing.,-15,260,20","2"
"8842","","survey-text","145","829044","0.0-144.0-0.0","AKK6H2YXK4RF6","","","","{""Q0"":""Rain on a window""}","","","","","","","","","","","","","","","","","","","","","","",""
"2736","","image-slider-response","146","831784","0.0-145.0","AKK6H2YXK4RF6","","","","","26","","","","","","","","","","","","","","","","","","","","","",""
"null","","image-button-response","147","836792","0.0-146.0","AKK6H2YXK4RF6","img_art/13.jpg","null","","","","","","","","","","","","","","","","","","","","","","","","",""
"3421","","image-button-response","148","840215","0.0-147.0","AKK6H2YXK4RF6","img_art/13.jpg","5","","","","","","","","","","","","","","","","","","","","","","","","",""
"1215","","image-button-response","149","841432","0.0-148.0-0.0","AKK6H2YXK4RF6","img_art/13.jpg","4","","","","","","","","","","","","","","","","","","","","","","","","",""
"1972","","image-button-response","150","843408","0.0-149.0-0.0","AKK6H2YXK4RF6","img_art/13.jpg","1","","","","","","","","","","","","","","","","","","","","","","","","",""
"null","","html-keyboard-response","151","844912","0.0-150.0","AKK6H2YXK4RF6","<p style=""font-size: 48px;"">+</p>","","","","","null","allTrialResponses","1500","1","15","img_art/13.jpg","26","Rain on a window","Chelsea,Emily,Monica,Haley,Angela,Lindsey","The colors are okay but I don't like the shapes here.,-18,180,20","I don't car for it but it does seem organized and like it took considereably more skill that others.,9,40,20","It's like any other splatter paint art piece, nothing special,1,360,20","Nothing about this stands out to me,-10,220,20","It's okay. Feels like a blander take on a Jackson Pollack,11,260,20","I find this oddly pleasant, but I object to this style. It's just a background with splatters. How is that art?,-5,400,20","Lindsey","I find this oddly pleasant, but I object to this style. It's just a background with splatters. How is that art?,-5,400,20","Angela","It's okay. Feels like a blander take on a Jackson Pollack,11,260,20","Emily","I don't car for it but it does seem organized and like it took considereably more skill that others.,9,40,20","2"
"4308","","survey-text","152","849237","0.0-151.0-0.0","AKK6H2YXK4RF6","","","","{""Q0"":""course""}","","","","","","","","","","","","","","","","","","","","","","",""
"14887","","survey-text","153","864126","0.0-152.0-0.0","AKK6H2YXK4RF6","","","","{""Q0"":""looks like someone tried to draw with poop""}","","","","","","","","","","","","","","","","","","","","","","",""
"3194","","image-slider-response","154","867321","0.0-153.0","AKK6H2YXK4RF6","","","","","-41","","","","","","","","","","","","","","","","","","","","","",""
"null","","image-button-response","155","872329","0.0-154.0","AKK6H2YXK4RF6","img_art/19.jpg","null","","","","","","","","","","","","","","","","","","","","","","","","",""
"1518","","image-button-response","156","873848","0.0-155.0","AKK6H2YXK4RF6","img_art/19.jpg","1","","","","","","","","","","","","","","","","","","","","","","","","",""
"1295","","image-button-response","157","875146","0.0-156.0-0.0","AKK6H2YXK4RF6","img_art/19.jpg","3","","","","","","","","","","","","","","","","","","","","","","","","",""
"4698","","image-button-response","158","879849","0.0-157.0-0.0","AKK6H2YXK4RF6","img_art/19.jpg","2","","","","","","","","","","","","","","","","","","","","","","","","",""
"null","","html-keyboard-response","159","881356","0.0-158.0","AKK6H2YXK4RF6","<p style=""font-size: 48px;"">+</p>","","","","","null","allTrialResponses","1500","1","16","img_art/19.jpg","-41","looks like someone tried to draw with poop","Kaylee,Emily,Emma,Jasmine,Angela,Lindsey","beautiful old town,37,200,20","Loks like an amature did it, Not pleasing.,-45,40,20","Interesting, leaves you wondering what it is,40,60,20","Just stirred a negative reaction. Don't really like it perhaps because of the structure?,-8,340,20","I like the colors but the scene itself feels too jumbled and cluttered,9,260,20","Pleasant colors with just enough detail to be recognizable. I can see a scene in it that tells a story.,7,400,20","Emily","Loks like an amature did it, Not pleasing.,-45,40,20","Jasmine","Just stirred a negative reaction. Don't really like it perhaps because of the structure?,-8,340,20","Emma","Interesting, leaves you wondering what it is,40,60,20","2"
"19563","","survey-text","160","900928","0.0-159.0-0.0","AKK6H2YXK4RF6","","","","{""Q0"":""another chaotic mess""}","","","","","","","","","","","","","","","","","","","","","","",""
"2832","","image-slider-response","161","903762","0.0-160.0","AKK6H2YXK4RF6","","","","","-45","","","","","","","","","","","","","","","","","","","","","",""
"null","","image-button-response","162","908768","0.0-161.0","AKK6H2YXK4RF6","img_art/1.jpg","null","","","","","","","","","","","","","","","","","","","","","","","","",""
"1034","","image-button-response","163","909804","0.0-162.0","AKK6H2YXK4RF6","img_art/1.jpg","0","","","","","","","","","","","","","","","","","","","","","","","","",""
"2018","","image-button-response","164","911825","0.0-163.0-0.0","AKK6H2YXK4RF6","img_art/1.jpg","3","","","","","","","","","","","","","","","","","","","","","","","","",""
"1832","","image-button-response","165","913660","0.0-164.0-0.0","AKK6H2YXK4RF6","img_art/1.jpg","1","","","","","","","","","","","","","","","","","","","","","","","","",""
"null","","html-keyboard-response","166","914165","0.0-165.0","AKK6H2YXK4RF6","<p style=""font-size: 48px;"">+</p>","","","","","null","allTrialResponses","500","1","17","img_art/1.jpg","-45","another chaotic mess","Destiny,Emily,Emma,Jasmine,Jordan,Shelby","looks like an earlier painting. I wish I gave it -20 but oh well,21,360,20","Just a mess though a better mess than some others.,-11,40,20","Pretty, nice use of color,40,60,20","Too similar to some of the other pieces,-18,340,20","It's fine, but its like something you'd see in the restroom of a cheap restaurant,10,20,20","This one has a pleasent energy,15,240,20","Destiny","looks like an earlier painting. I wish I gave it -20 but oh well,21,360,20","Jasmine","Too similar to some of the other pieces,-18,340,20","Emily","Just a mess though a better mess than some others.,-11,40,20","2"
"17951","","survey-text","167","932122","0.0-166.0-0.0","AKK6H2YXK4RF6","","","","{""Q0"":""ok now I feel like you're trolling with this one""}","","","","","","","","","","","","","","","","","","","","","","",""
"4359","","image-slider-response","168","936485","0.0-167.0","AKK6H2YXK4RF6","","","","","-50","","","","","","","","","","","","","","","","","","","","","",""
"null","","image-button-response","169","941489","0.0-168.0","AKK6H2YXK4RF6","img_art/16.jpg","null","","","","","","","","","","","","","","","","","","","","","","","","",""
"5073","","image-button-response","170","946563","0.0-169.0","AKK6H2YXK4RF6","img_art/16.jpg","0","","","","","","","","","","","","","","","","","","","","","","","","",""
"9310","","image-button-response","171","955876","0.0-170.0-0.0","AKK6H2YXK4RF6","img_art/16.jpg","4","","","","","","","","","","","","","","","","","","","","","","","","",""
"3224","","image-button-response","172","959102","0.0-171.0-0.0","AKK6H2YXK4RF6","img_art/16.jpg","2","","","","","","","","","","","","","","","","","","","","","","","","",""
"null","","html-keyboard-response","173","959606","0.0-172.0","AKK6H2YXK4RF6","<p style=""font-size: 48px;"">+</p>","","","","","null","allTrialResponses","500","1","18","img_art/16.jpg","-50","ok now I feel like you're trolling with this one","Destiny,Emily,Shannon,Jasmine,Mariah,Heather","what is this doing for anyone. If you connect with this you're literally lying to yourself. pretentious,-50,360,20","Looks like a kid did itt and ti looks disturbing.,-45,40,20","I think this picture is weird and the colors are very boring.,-50,220,20","I like it because it's quite different from the rest,23,340,20","Why is that bear there? It looks like it would be gross to touch. The texture bothers me.,-20,140,20","lol i dont know how i feel about this.,1,260,20","Destiny","what is this doing for anyone. If you connect with this you're literally lying to yourself. pretentious,-50,360,20","Mariah","Why is that bear there? It looks like it would be gross to touch. The texture bothers me.,-20,140,20","Shannon","I think this picture is weird and the colors are very boring.,-50,220,20","2"
"24080","","survey-text","174","983691","0.0-173.0-0.0","AKK6H2YXK4RF6","","","","{""Q0"":""just say no to hairdryers and paintbrushes""}","","","","","","","","","","","","","","","","","","","","","","",""
"3588","","image-slider-response","175","987282","0.0-174.0","AKK6H2YXK4RF6","","","","","-50","","","","","","","","","","","","","","","","","","","","","",""
"null","","image-button-response","176","992286","0.0-175.0","AKK6H2YXK4RF6","img_art/29.jpg","null","","","","","","","","","","","","","","","","","","","","","","","","",""
"2407","","image-button-response","177","994695","0.0-176.0","AKK6H2YXK4RF6","img_art/29.jpg","0","","","","","","","","","","","","","","","","","","","","","","","","",""
"6032","","image-button-response","178","1000730","0.0-177.0-0.0","AKK6H2YXK4RF6","img_art/29.jpg","2","","","","","","","","","","","","","","","","","","","","","","","","",""
"1483","","image-button-response","179","1002215","0.0-178.0-0.0","AKK6H2YXK4RF6","img_art/29.jpg","1","","","","","","","","","","","","","","","","","","","","","","","","",""
"null","","html-keyboard-response","180","1002719","0.0-179.0","AKK6H2YXK4RF6","<p style=""font-size: 48px;"">+</p>","","","","","null","allTrialResponses","500","1","19","img_art/29.jpg","-50","just say no to hairdryers and paintbrushes","Destiny,Cassandra,Shannon,Molly,Mariah,Samantha","is this supposed to be edgy,-21,360,20","Neural...just a blackboard jungle.,3,120,20","I think this image looks ugly and needs more colors so it looks nicer.,-30,220,20","Looks kinda scary.,25,340,20","It feels like looking through layers of frustration.,19,140,20","I love this things almost hidden in it like paint brush and other details,50,140,20","Destiny","is this supposed to be edgy,-21,360,20","Shannon","I think this image looks ugly and needs more colors so it looks nicer.,-30,220,20","Cassandra","Neural...just a blackboard jungle.,3,120,20","2"
"22471","","survey-text","181","1025200","0.0-180.0-0.0","AKK6H2YXK4RF6","","","","{""Q0"":""looks like someone who has never seen a guitar tried to paint one with their feet""}","","","","","","","","","","","","","","","","","","","","","","",""
"4399","","image-slider-response","182","1029600","0.0-181.0","AKK6H2YXK4RF6","","","","","-41","","","","","","","","","","","","","","","","","","","","","",""
"null","","image-button-response","183","1034603","0.0-182.0","AKK6H2YXK4RF6","img_art/10.jpg","null","","","","","","","","","","","","","","","","","","","","","","","","",""
"1964","","image-button-response","184","1036569","0.0-183.0","AKK6H2YXK4RF6","img_art/10.jpg","1","","","","","","","","","","","","","","","","","","","","","","","","",""
"6362","","image-button-response","185","1042934","0.0-184.0-0.0","AKK6H2YXK4RF6","img_art/10.jpg","5","","","","","","","","","","","","","","","","","","","","","","","","",""
"1172","","image-button-response","186","1044109","0.0-185.0-0.0","AKK6H2YXK4RF6","img_art/10.jpg","3","","","","","","","","","","","","","","","","","","","","","","","","",""
"null","","html-keyboard-response","187","1045114","0.0-186.0","AKK6H2YXK4RF6","<p style=""font-size: 48px;"">+</p>","","","","","null","allTrialResponses","1000","1","20","img_art/10.jpg","-41","looks like someone who has never seen a guitar tried to paint one with their feet","Destiny,Cassandra,Shannon,Jessica,Kaitlin,Chloe","The more I look the more I like. Reminds me of a rollercoaster and a war scene. A lot going on which is unnerving, like a rollercoaster but still fun,22,360,20","I liked it...it looked somewhat like a guitar.,32,120,20","I can't tell what this picture is supposed to mean and I think the colors are lacking variety.,-42,220,20","I feel like this has a cool concept behind it.,11,400,20","awww... this looks very nice,32,60,20","Don't like the colorblock but the lines are nice,-20,220,20","Cassandra","I liked it...it looked somewhat like a guitar.,32,120,20","Chloe","Don't like the colorblock but the lines are nice,-20,220,20","Jessica","I feel like this has a cool concept behind it.,11,400,20","2"
"2969","","survey-text","188","1048100","0.0-187.0-0.0","AKK6H2YXK4RF6","","","","{""Q0"":""we""}","","","","","","","","","","","","","","","","","","","","","","",""
"7885","","survey-text","189","1055987","0.0-188.0-0.0","AKK6H2YXK4RF6","","","","{""Q0"":""more fingerpaints""}","","","","","","","","","","","","","","","","","","","","","","",""
"3851","","image-slider-response","190","1059840","0.0-189.0","AKK6H2YXK4RF6","","","","","-40","","","","","","","","","","","","","","","","","","","","","",""
"null","","image-button-response","191","1064846","0.0-190.0","AKK6H2YXK4RF6","img_art/30.jpg","null","","","","","","","","","","","","","","","","","","","","","","","","",""
"1056","","image-button-response","192","1065904","0.0-191.0","AKK6H2YXK4RF6","img_art/30.jpg","1","","","","","","","","","","","","","","","","","","","","","","","","",""
"1364","","image-button-response","193","1067272","0.0-192.0-0.0","AKK6H2YXK4RF6","img_art/30.jpg","4","","","","","","","","","","","","","","","","","","","","","","","","",""
"788","","image-button-response","194","1068066","0.0-193.0-0.0","AKK6H2YXK4RF6","img_art/30.jpg","5","","","","","","","","","","","","","","","","","","","","","","","","",""
"null","","html-keyboard-response","195","1069070","0.0-194.0","AKK6H2YXK4RF6","<p style=""font-size: 48px;"">+</p>","","","","","null","allTrialResponses","1000","1","21","img_art/30.jpg","-40","more fingerpaints","Kelly,Cassandra,Danielle,Jessica,Meghan,Chloe","The red helps it to pop.,13,220,20","I didn't like this...it looks like someone just finger painted it.,-10,120,20","It's okay. It should either have stuck to the grey-blue, or added more red. Seems unorganized (maybe that's the point?),-9,340,20","Looks cool , but no meaning,1,400,20","nothing special about it,1,220,20","Muddy, sloppy, unprofessional,-44,220,20","Cassandra","I didn't like this...it looks like someone just finger painted it.,-10,120,20","Meghan","nothing special about it,1,220,20","Chloe","Muddy, sloppy, unprofessional,-44,220,20","2"
"15935","","survey-text","196","1085013","0.0-195.0-0.0","AKK6H2YXK4RF6","","","","{""Q0"":""someone sure likes brown""}","","","","","","","","","","","","","","","","","","","","","","",""
"3235","","image-slider-response","197","1088250","0.0-196.0","AKK6H2YXK4RF6","","","","","-46","","","","","","","","","","","","","","","","","","","","","",""
"null","","image-button-response","198","1093258","0.0-197.0","AKK6H2YXK4RF6","img_art/28.jpg","null","","","","","","","","","","","","","","","","","","","","","","","","",""
"791","","image-button-response","199","1094050","0.0-198.0","AKK6H2YXK4RF6","img_art/28.jpg","1","","","","","","","","","","","","","","","","","","","","","","","","",""
"1761","","image-button-response","200","1095814","0.0-199.0-0.0","AKK6H2YXK4RF6","img_art/28.jpg","0","","","","","","","","","","","","","","","","","","","","","","","","",""
"1774","","image-button-response","201","1097589","0.0-200.0-0.0","AKK6H2YXK4RF6","img_art/28.jpg","4","","","","","","","","","","","","","","","","","","","","","","","","",""
"null","","html-keyboard-response","202","1098593","0.0-201.0","AKK6H2YXK4RF6","<p style=""font-size: 48px;"">+</p>","","","","","null","allTrialResponses","1000","1","22","img_art/28.jpg","-46","someone sure likes brown","Erin,Cassandra,Alexis,Savannah,Meghan,Chloe","Dislike color palette and amoeba,-9,120,20","Hate it...brown and drab,-37,120,20","Interesting. I like the ""old woman"" on the left. Lots of different entities to look at,21,100,20","White and dark balance is way off- Seems dull.,-33,200,20","I don't like the color choice,-30,220,20","Evocative but a little dreary.,20,220,20","Cassandra","Hate it...brown and drab,-37,120,20","Erin","Dislike color palette and amoeba,-9,120,20","Meghan","I don't like the color choice,-30,220,20","2"
"13909","","survey-text","203","1112512","0.0-202.0-0.0","AKK6H2YXK4RF6","","","","{""Q0"":""It's a murder tree. I like it. ""}","","","","","","","","","","","","","","","","","","","","","","",""
"3340","","image-slider-response","204","1115855","0.0-203.0","AKK6H2YXK4RF6","","","","","32","","","","","","","","","","","","","","","","","","","","","",""
"null","","image-button-response","205","1120860","0.0-204.0","AKK6H2YXK4RF6","img_art/14.jpg","null","","","","","","","","","","","","","","","","","","","","","","","","",""
"1302","","image-button-response","206","1122166","0.0-205.0","AKK6H2YXK4RF6","img_art/14.jpg","1","","","","","","","","","","","","","","","","","","","","","","","","",""
"1332","","image-button-response","207","1123502","0.0-206.0-0.0","AKK6H2YXK4RF6","img_art/14.jpg","5","","","","","","","","","","","","","","","","","","","","","","","","",""
"1755","","image-button-response","208","1125260","0.0-207.0-0.0","AKK6H2YXK4RF6","img_art/14.jpg","3","","","","","","","","","","","","","","","","","","","","","","","","",""
"null","","html-keyboard-response","209","1125763","0.0-208.0","AKK6H2YXK4RF6","<p style=""font-size: 48px;"">+</p>","","","","","null","allTrialResponses","500","1","23","img_art/14.jpg","32","It's a murder tree. I like it. ","Erin,Cassandra,Rachel,Madeline,Meghan,Taylor","Looks childish and basic,-42,120,20","I kind of like it...I like the white back ground,11,120,20","Did not evoke much feeling except confusion. I am not sure what to make of this one.,-20,80,20","It looks nice colorwise but detail is lacking,18,40,20","its okay nothing special,11,220,20","Makes me think of my plants growing,11,340,20","Cassandra","I kind of like it...I like the white back ground,11,120,20","Taylor","Makes me think of my plants growing,11,340,20","Madeline","It looks nice colorwise but detail is lacking,18,40,20","2"
"11891","","survey-text","210","1137662","0.0-209.0-0.0","AKK6H2YXK4RF6","","","","{""Q0"":""Looks like a swarm of bugs, ugh""}","","","","","","","","","","","","","","","","","","","","","","",""
"3303","","image-slider-response","211","1140970","0.0-210.0","AKK6H2YXK4RF6","","","","","-50","","","","","","","","","","","","","","","","","","","","","",""
"null","","image-button-response","212","1145978","0.0-211.0","AKK6H2YXK4RF6","img_art/15.jpg","null","","","","","","","","","","","","","","","","","","","","","","","","",""
"2262","","image-button-response","213","1148243","0.0-212.0","AKK6H2YXK4RF6","img_art/15.jpg","1","","","","","","","","","","","","","","","","","","","","","","","","",""
"784","","image-button-response","214","1149032","0.0-213.0-0.0","AKK6H2YXK4RF6","img_art/15.jpg","2","","","","","","","","","","","","","","","","","","","","","","","","",""
"1334","","image-button-response","215","1150368","0.0-214.0-0.0","AKK6H2YXK4RF6","img_art/15.jpg","0","","","","","","","","","","","","","","","","","","","","","","","","",""
"null","","html-keyboard-response","216","1151372","0.0-215.0","AKK6H2YXK4RF6","<p style=""font-size: 48px;"">+</p>","","","","","null","allTrialResponses","1000","1","24","img_art/15.jpg","-50","Looks like a swarm of bugs, ugh","Allison,Cassandra,Grace,Madeline,Gabriela,Taylor","Eyes hunt for the blue in the black.,5,140,20","Hate it...black dots.,-47,120,20","Interesting. Reminds me of a biopsy slide.,21,180,20","Simple but needs some more detail somehow,-3,40,20","it is dark and gloomy,-9,140,20","The blues are soothing,21,340,20","Cassandra","Hate it...black dots.,-47,120,20","Grace","Interesting. Reminds me of a biopsy slide.,21,180,20","Allison","Eyes hunt for the blue in the black.,5,140,20","2"
"12977","","survey-text","217","1164359","0.0-216.0-0.0","AKK6H2YXK4RF6","","","","{""Q0"":""I like it, I see a town on a rainy day""}","","","","","","","","","","","","","","","","","","","","","","",""
"2486","","image-slider-response","218","1166848","0.0-217.0","AKK6H2YXK4RF6","","","","","40","","","","","","","","","","","","","","","","","","","","","",""
"null","","image-button-response","219","1171854","0.0-218.0","AKK6H2YXK4RF6","img_art/11.jpg","null","","","","","","","","","","","","","","","","","","","","","","","","",""
"706","","image-button-response","220","1172562","0.0-219.0","AKK6H2YXK4RF6","img_art/11.jpg","3","","","","","","","","","","","","","","","","","","","","","","","","",""
"1250","","image-button-response","221","1173816","0.0-220.0-0.0","AKK6H2YXK4RF6","img_art/11.jpg","2","","","","","","","","","","","","","","","","","","","","","","","","",""
"1388","","image-button-response","222","1175210","0.0-221.0-0.0","AKK6H2YXK4RF6","img_art/11.jpg","1","","","","","","","","","","","","","","","","","","","","","","","","",""
"null","","html-keyboard-response","223","1176717","0.0-222.0","AKK6H2YXK4RF6","<p style=""font-size: 48px;"">+</p>","","","","","null","allTrialResponses","1500","1","25","img_art/11.jpg","40","I like it, I see a town on a rainy day","Allison,Cassandra,Grace,Melissa,Erica,Paige","Kind of reminds me of DNA.,9,140,20","I liked it it looked like an roller coasters at an amusment park.,16,120,20","Rainy asian city scape.,31,180,20","reminds me of home,5,240,20","a lot of dark colours,-8,80,20","gave me a sense of gloom,-21,60,20","Melissa","reminds me of home,5,240,20","Grace","Rainy asian city scape.,31,180,20","Cassandra","I liked it it looked like an roller coasters at an amusment park.,16,120,20","2"
"3560","","survey-text","224","1180303","0.0-223.0-0.0","AKK6H2YXK4RF6","","","","{""Q0"":""table""}","","","","","","","","","","","","","","","","","","","","","","",""
"16249","","survey-text","225","1196556","0.0-224.0-0.0","AKK6H2YXK4RF6","","","","{""Q0"":""did a kid do this?""}","","","","","","","","","","","","","","","","","","","","","","",""
"2918","","image-slider-response","226","1199477","0.0-225.0","AKK6H2YXK4RF6","","","","","-30","","","","","","","","","","","","","","","","","","","","","",""
"null","","image-button-response","227","1204485","0.0-226.0","AKK6H2YXK4RF6","img_art/26.jpg","null","","","","","","","","","","","","","","","","","","","","","","","","",""
"802","","image-button-response","228","1205289","0.0-227.0","AKK6H2YXK4RF6","img_art/26.jpg","3","","","","","","","","","","","","","","","","","","","","","","","","",""
"2874","","image-button-response","229","1208165","0.0-228.0-0.0","AKK6H2YXK4RF6","img_art/26.jpg","1","","","","","","","","","","","","","","","","","","","","","","","","",""
"972","","image-button-response","230","1209140","0.0-229.0-0.0","AKK6H2YXK4RF6","img_art/26.jpg","0","","","","","","","","","","","","","","","","","","","","","","","","",""
"null","","html-keyboard-response","231","1210143","0.0-230.0","AKK6H2YXK4RF6","<p style=""font-size: 48px;"">+</p>","","","","","null","allTrialResponses","1000","1","26","img_art/26.jpg","-30","did a kid do this?","Brittany,Cassandra,Grace,Melissa,Alexandria,Rebecca","It looks boring and too rough.,-9,40,20","Neutral...nothing to say.,3,120,20","Like the muted colors & the scene which seems to be serene.,14,180,20","feels incomplete,-50,240,20","makes me happy and reminds me of a paris courtyard,29,80,20","love the ""lowkey"" vibrant colors that are colorful but at the same time greyscale,12,100,20","Melissa","feels incomplete,-50,240,20","Cassandra","Neutral...nothing to say.,3,120,20","Brittany","It looks boring and too rough.,-9,40,20","2"
"12272","","survey-text","232","1222426","0.0-231.0-0.0","AKK6H2YXK4RF6","","","","{""Q0"":""It reminds me of The Wicker Man""}","","","","","","","","","","","","","","","","","","","","","","",""
"3003","","image-slider-response","233","1225430","0.0-232.0","AKK6H2YXK4RF6","","","","","50","","","","","","","","","","","","","","","","","","","","","",""
"null","","image-button-response","234","1230435","0.0-233.0","AKK6H2YXK4RF6","img_art/25.jpg","null","","","","","","","","","","","","","","","","","","","","","","","","",""
"585","","image-button-response","235","1231021","0.0-234.0","AKK6H2YXK4RF6","img_art/25.jpg","4","","","","","","","","","","","","","","","","","","","","","","","","",""
"1211","","image-button-response","236","1232233","0.0-235.0-0.0","AKK6H2YXK4RF6","img_art/25.jpg","5","","","","","","","","","","","","","","","","","","","","","","","","",""
"910","","image-button-response","237","1233147","0.0-236.0-0.0","AKK6H2YXK4RF6","img_art/25.jpg","2","","","","","","","","","","","","","","","","","","","","","","","","",""
"null","","html-keyboard-response","238","1234152","0.0-237.0","AKK6H2YXK4RF6","<p style=""font-size: 48px;"">+</p>","","","","","null","allTrialResponses","1000","1","27","img_art/25.jpg","50","It reminds me of The Wicker Man","Brittany,Cassandra,Sarah,Melissa,Erika,Isabella","It's a rather intriguing design,12,40,20","I hate the colors and the scene,-46,120,20","green is really cool, and the pieces in black fit together and are interesting,20,180,20","do not like that color of green,-11,240,20","Very cryptic and ancient,36,100,20","I love the green and the figure is black but the green makes it pop,29,280,20","Erika","Very cryptic and ancient,36,100,20","Isabella","I love the green and the figure is black but the green makes it pop,29,280,20","Sarah","green is really cool, and the pieces in black fit together and are interesting,20,180,20","2"
"24789","","survey-text","239","1258953","0.0-238.0-0.0","AKK6H2YXK4RF6","","","","{""Q0"":""This looks like it should be a pair of lularoe leggings""}","","","","","","","","","","","","","","","","","","","","","","",""
"3222","","image-slider-response","240","1262178","0.0-239.0","AKK6H2YXK4RF6","","","","","-43","","","","","","","","","","","","","","","","","","","","","",""
"null","","image-button-response","241","1267184","0.0-240.0","AKK6H2YXK4RF6","img_art/12.jpg","null","","","","","","","","","","","","","","","","","","","","","","","","",""
"1265","","image-button-response","242","1268450","0.0-241.0","AKK6H2YXK4RF6","img_art/12.jpg","5","","","","","","","","","","","","","","","","","","","","","","","","",""
"1818","","image-button-response","243","1270271","0.0-242.0-0.0","AKK6H2YXK4RF6","img_art/12.jpg","2","","","","","","","","","","","","","","","","","","","","","","","","",""
"3783","","image-button-response","244","1274059","0.0-243.0-0.0","AKK6H2YXK4RF6","img_art/12.jpg","4","","","","","","","","","","","","","","","","","","","","","","","","",""
"null","","html-keyboard-response","245","1275065","0.0-244.0","AKK6H2YXK4RF6","<p style=""font-size: 48px;"">+</p>","","","","","null","allTrialResponses","1000","1","28","img_art/12.jpg","-43","This looks like it should be a pair of lularoe leggings","Victoria,Jacqueline,Sarah,Alexa,Erika,Isabella","to contemporary for me,3,400,20","It's not particularly interesting or ugly.,-7,300,20","i think it's a good piece but it doesn't appeal to me,-18,180,20","I love the pattern and this looks like it took a good deal of effort,35,40,20","I don't like it, but I appreciate the effort and technique,11,100,20","Something you would see in a government building hallway,3,280,20","Isabella","Something you would see in a government building hallway,3,280,20","Sarah","i think it's a good piece but it doesn't appeal to me,-18,180,20","Erika","I don't like it, but I appreciate the effort and technique,11,100,20","2"
"12670","","survey-text","246","1287746","0.0-245.0-0.0","AKK6H2YXK4RF6","","","","{""Q0"":""Super violent tug of war""}","","","","","","","","","","","","","","","","","","","","","","",""
"2640","","image-slider-response","247","1290388","0.0-246.0","AKK6H2YXK4RF6","","","","","-36","","","","","","","","","","","","","","","","","","","","","",""
"null","","image-button-response","248","1295395","0.0-247.0","AKK6H2YXK4RF6","img_art/23.jpg","null","","","","","","","","","","","","","","","","","","","","","","","","",""
"1348","","image-button-response","249","1296746","0.0-248.0","AKK6H2YXK4RF6","img_art/23.jpg","0","","","","","","","","","","","","","","","","","","","","","","","","",""
"1666","","image-button-response","250","1298415","0.0-249.0-0.0","AKK6H2YXK4RF6","img_art/23.jpg","1","","","","","","","","","","","","","","","","","","","","","","","","",""
"5014","","image-button-response","251","1303434","0.0-250.0-0.0","AKK6H2YXK4RF6","img_art/23.jpg","2","","","","","","","","","","","","","","","","","","","","","","","","",""
"null","","html-keyboard-response","252","1304940","0.0-251.0","AKK6H2YXK4RF6","<p style=""font-size: 48px;"">+</p>","","","","","null","allTrialResponses","1500","1","29","img_art/23.jpg","-36","Super violent tug of war","Margaret,Breanna,Sarah,Lauren,Erika,Isabella","white reminds me of screamo music band tshirts when they have their name in the unreadable lettering,-9,100,20","Makes me worried,10,380,20","it's not uninteresting, but i'm not responding to it,-7,180,20","I like the symmetrical design and how it portrays the liveliness of a musical environment.,30,340,20","Very intense and unique,3,100,20","Love the line in the middle separating the two dark sides,50,280,20","Margaret","white reminds me of screamo music band tshirts when they have their name in the unreadable lettering,-9,100,20","Breanna","Makes me worried,10,380,20","Sarah","it's not uninteresting, but i'm not responding to it,-7,180,20","2"
"10713","","survey-text","253","1315668","0.0-252.0-0.0","AKK6H2YXK4RF6","","","","{""Q0"":""I like how the colors bleed together""}","","","","","","","","","","","","","","","","","","","","","","",""
"3518","","image-slider-response","254","1319189","0.0-253.0","AKK6H2YXK4RF6","","","","","46","","","","","","","","","","","","","","","","","","","","","",""
"null","","image-button-response","255","1324194","0.0-254.0","AKK6H2YXK4RF6","img_art/21.jpg","null","","","","","","","","","","","","","","","","","","","","","","","","",""
"2492","","image-button-response","256","1326689","0.0-255.0","AKK6H2YXK4RF6","img_art/21.jpg","0","","","","","","","","","","","","","","","","","","","","","","","","",""
"1496","","image-button-response","257","1328188","0.0-256.0-0.0","AKK6H2YXK4RF6","img_art/21.jpg","2","","","","","","","","","","","","","","","","","","","","","","","","",""
"1380","","image-button-response","258","1329571","0.0-257.0-0.0","AKK6H2YXK4RF6","img_art/21.jpg","5","","","","","","","","","","","","","","","","","","","","","","","","",""
"null","","html-keyboard-response","259","1330075","0.0-258.0","AKK6H2YXK4RF6","<p style=""font-size: 48px;"">+</p>","","","","","null","allTrialResponses","500","1","30","img_art/21.jpg","46","I like how the colors bleed together","Margaret,Breanna,Sarah,Alicia,Laura,Katie","i like the colors and the blending,17,100,20","Can't understand what it is,-27,380,20","I love the section of blues, the colors overall are really lovely,31,180,20","Don't know why I like it, cant describe, maybe many landscapes?,47,120,20","a serene, calm and eloquent storm,9,320,20","Immediately a positive response! I like the muted colors. the blurriness calms me. It's serene,40,160,20","Margaret","i like the colors and the blending,17,100,20","Sarah","I love the section of blues, the colors overall are really lovely,31,180,20","Katie","Immediately a positive response! I like the muted colors. the blurriness calms me. It's serene,40,160,20","2"
"3657","","image-button-response_instructions","260","1333740","0.0-259.0","AKK6H2YXK4RF6","","0","instructions","","","","","","","","","","","","","","","","","","","","","","","",""
