"rt","url","trial_type","trial_index","time_elapsed","internal_node_id","participant_id","stimulus","button_pressed","Name","responses","response","key_press","variableName","fixationTime","condition","trial","photo","subjectRating","subjectResponse","agentsNames","agent_1_Response","agent_2_Response","agent_3_Response","agent_4_Response","agent_5_Response","agent_6_Response","kept_1_name","kept_1_response","kept_2_name","kept_2_response","kept_3_name","kept_3_response","errorCounter"
"9180","external_page_harvard.html","external-html","0","9248","0.0-0.0","AKP66RIZ3LQVX","","","","","","","","","","","","","","","","","","","","","","","","","","",""
"1530","","image-button-response","1","10780","0.0-1.0","AKP66RIZ3LQVX","","0","","","","","","","","","","","","","","","","","","","","","","","","",""
"2287","","image-button-response","2","13072","0.0-2.0-0.0","AKP66RIZ3LQVX","","1","phone","","","","","","","","","","","","","","","","","","","","","","","",""
"2905","","survey-text","3","15979","0.0-3.0-0.0","AKP66RIZ3LQVX","","","","{""Q0"":""AKP66RIZ3LQVX""}","","","","","","","","","","","","","","","","","","","","","","",""
"5866","","image-button-response_instructions","4","21847","0.0-4.0","AKP66RIZ3LQVX","","0","instructions","","","","","","","","","","","","","","","","","","","","","","","",""
"6392","","image-button-response_instructions","5","28241","0.0-5.0","AKP66RIZ3LQVX","img_art/ins/popularity/ins1.png","0","instructions","","","","","","","","","","","","","","","","","","","","","","","",""
"2670","","image-button-response_instructions","6","30913","0.0-6.0","AKP66RIZ3LQVX","img_art/ins/popularity/ins2.png","0","instructions","","","","","","","","","","","","","","","","","","","","","","","",""
"4328","","image-button-response_instructions","7","35242","0.0-7.0","AKP66RIZ3LQVX","img_art/ins/popularity/ins2Extreme.png","0","instructions","","","","","","","","","","","","","","","","","","","","","","","",""
"6693","","image-button-response_instructions","8","41937","0.0-8.0","AKP66RIZ3LQVX","img_art/ins/popularity/ins3KEEPpop.PNG","0","instructions","","","","","","","","","","","","","","","","","","","","","","","",""
"2545","","image-button-response_instructions","9","44483","0.0-9.0","AKP66RIZ3LQVX","img_art/ins/popularity/ins3ANamepop.PNG","0","instructions","","","","","","","","","","","","","","","","","","","","","","","",""
"5682","","image-button-response_instructions","10","50166","0.0-10.0","AKP66RIZ3LQVX","img_art/ins/popularity/ins3ARatingpop.png","0","instructions","","","","","","","","","","","","","","","","","","","","","","","",""
"8235","","image-button-response_instructions","11","58403","0.0-11.0","AKP66RIZ3LQVX","img_art/ins/popularity/ins3ATextpop.png","0","instructions","","","","","","","","","","","","","","","","","","","","","","","",""
"4267","","image-button-response_instructions","12","62671","0.0-12.0","AKP66RIZ3LQVX","img_art/ins/popularity/ins3ALikespop.png","0","instructions","","","","","","","","","","","","","","","","","","","","","","","",""
"10400","","image-button-response_instructions","13","73073","0.0-13.0","AKP66RIZ3LQVX","img_art/ins/popularity/ins3KEEPpop.PNG","0","instructions","","","","","","","","","","","","","","","","","","","","","","","",""
"10191","","image-button-response_instructions","14","83265","0.0-14.0","AKP66RIZ3LQVX","img_art/ins/popularity/ins3_5RED.png","0","instructions","","","","","","","","","","","","","","","","","","","","","","","",""
"6134","","image-button-response_instructions","15","89401","0.0-15.0","AKP66RIZ3LQVX","img_art/ins/popularity/ins3KEEPpop.PNG","0","instructions","","","","","","","","","","","","","","","","","","","","","","","",""
"9684","","image-button-response_instructions","16","99086","0.0-16.0","AKP66RIZ3LQVX","img_art/ins/popularity/ins4KEEPpop.PNG","0","instructions","","","","","","","","","","","","","","","","","","","","","","","",""
"7207","","image-button-response_instructions","17","106295","0.0-17.0","AKP66RIZ3LQVX","img_art/ins/popularity/ins5KEEPpop.PNG","0","instructions","","","","","","","","","","","","","","","","","","","","","","","",""
"1499","","image-button-response_instructions","18","107795","0.0-18.0","AKP66RIZ3LQVX","","0","instructions","","","","","","","","","","","","","","","","","","","","","","","",""
"5856","","survey-text","19","113676","0.0-19.0-0.0","AKP66RIZ3LQVX","","","","{""Q0"":""but""}","","","","","","","","","","","","","","","","","","","","","","",""
"26204","","survey-text","20","139882","0.0-20.0-0.0","AKP66RIZ3LQVX","","","","{""Q0"":""There's a lot of visual movement, but I'm just not a fan of the texture.""}","","","","","","","","","","","","","","","","","","","","","","",""
"3528.9000000953674","","image-slider-response","21","143413","0.0-21.0","AKP66RIZ3LQVX","","","","","-20","","","","","","","","","","","","","","","","","","","","","",""
"null","","image-button-response","22","148416","0.0-22.0","AKP66RIZ3LQVX","img_art/ins/1.jpg","null","","","","","","","","","","","","","","","","","","","","","","","","",""
"6565","","image-button-response","23","154983","0.0-23.0","AKP66RIZ3LQVX","img_art/ins/1.jpg","4","","","","","","","","","","","","","","","","","","","","","","","","",""
"2032","","image-button-response","24","157017","0.0-24.0-0.0","AKP66RIZ3LQVX","img_art/ins/1.jpg","3","","","","","","","","","","","","","","","","","","","","","","","","",""
"19702","","image-button-response","25","176722","0.0-25.0-0.0","AKP66RIZ3LQVX","img_art/ins/1.jpg","1","","","","","","","","","","","","","","","","","","","","","","","","",""
"null","","html-keyboard-response","26","178225","0.0-26.0","AKP66RIZ3LQVX","<p style=""font-size: 48px;"">+</p>","","","","","null","allTrialResponses","1500","1","-2","img_art/ins/1.jpg","-20","There's a lot of visual movement, but I'm just not a fan of the texture.","Adam,Alex,Ben,Carl,Daniel,Jack","Seems like doodles,-20,20,20","very creative work.,36,40,20","This color reminds me of poo,-46,60,20","very calming artwork,42,80,20","It looks like a murder scene.,-48,100,20","I like the sophisticated brushwork,40,120,20","Daniel","It looks like a murder scene.,-48,100,20","Carl","very calming artwork,42,80,20","Alex","very creative work.,36,40,20","0"
"25766","","survey-text","27","203995","0.0-27.0-0.0","AKP66RIZ3LQVX","","","","{""Q0"":""I like the overall gritty look to it.""}","","","","","","","","","","","","","","","","","","","","","","",""
"7750.099999904633","","image-slider-response","28","211748","0.0-28.0","AKP66RIZ3LQVX","","","","","31","","","","","","","","","","","","","","","","","","","","","",""
"null","","image-button-response","29","216752","0.0-29.0","AKP66RIZ3LQVX","img_art/ins/2.jpg","null","","","","","","","","","","","","","","","","","","","","","","","","",""
"8268","","image-button-response","30","225022","0.0-30.0","AKP66RIZ3LQVX","img_art/ins/2.jpg","1","","","","","","","","","","","","","","","","","","","","","","","","",""
"402","","image-button-response","31","225427","0.0-31.0-0.0","AKP66RIZ3LQVX","img_art/ins/2.jpg","0","","","","","","","","","","","","","","","","","","","","","","","","",""
"819","","image-button-response","32","226249","0.0-32.0-0.0","AKP66RIZ3LQVX","img_art/ins/2.jpg","0","","","","","","","","","","","","","","","","","","","","","","","","",""
"2684","","image-button-response","33","232703","0.0-32.1-0.1","AKP66RIZ3LQVX","img_art/ins/2.jpg","2","","","","","","","","","","","","","","","","","","","","","","","","",""
"null","","html-keyboard-response","34","233205","0.0-33.0","AKP66RIZ3LQVX","<p style=""font-size: 48px;"">+</p>","","","","","null","allTrialResponses","500","1","-1","img_art/ins/2.jpg","31","I like the overall gritty look to it.","James,Alex,John,Carl,Daniel,Kyle","looks too angry,-50,140,20","I like the blocks of color arrangements,30,40,20","love the texture of paint,48,160,20","I can feel the artist's passion in it,45,80,20","One of my pet peevs,-48,100,20","Idk, it is just annoying,-32,180,20","Alex","I like the blocks of color arrangements,30,40,20","James","looks too angry,-50,140,20","John","love the texture of paint,48,160,20","2"
"43447","","survey-text","35","276655","0.0-34.0-0.0","AKP66RIZ3LQVX","","","","{""Q0"":""Very pretty, cool colors, and the darker blue seems like claws jutting out of ice.""}","","","","","","","","","","","","","","","","","","","","","","",""
"3463.2999997138977","","image-slider-response","36","280121","0.0-35.0","AKP66RIZ3LQVX","","","","","42","","","","","","","","","","","","","","","","","","","","","",""
"null","","image-button-response","37","285124","0.0-36.0","AKP66RIZ3LQVX","img_art/ins/3.jpg","null","","","","","","","","","","","","","","","","","","","","","","","","",""
"686","","image-button-response","38","285812","0.0-37.0","AKP66RIZ3LQVX","img_art/ins/3.jpg","2","","","","","","","","","","","","","","","","","","","","","","","","",""
"693","","image-button-response","39","286508","0.0-38.0-0.0","AKP66RIZ3LQVX","img_art/ins/3.jpg","1","","","","","","","","","","","","","","","","","","","","","","","","",""
"1490","","image-button-response","40","288000","0.0-39.0-0.0","AKP66RIZ3LQVX","img_art/ins/3.jpg","0","","","","","","","","","","","","","","","","","","","","","","","","",""
"null","","html-keyboard-response","41","289003","0.0-40.0","AKP66RIZ3LQVX","<p style=""font-size: 48px;"">+</p>","","","","","null","allTrialResponses","1000","1","0","img_art/ins/3.jpg","42","Very pretty, cool colors, and the darker blue seems like claws jutting out of ice.","James,Alex,John,Mike,Ron,Sam","My worst nightmare,-42,140,20","calming blue is very nice,36,40,20","I like the overlapping of brushes,41,160,20","enjoy the different shades of blue,22,200,20","It looks depressing,-26,220,20","I can feel a rainy day from this painting,18,240,20","John","I like the overlapping of brushes,41,160,20","Alex","calming blue is very nice,36,40,20","James","My worst nightmare,-42,140,20","2"
"5513","","image-button-response_instructions","42","294520","0.0-41.0","AKP66RIZ3LQVX","","0","instructions","","","","","","","","","","","","","","","","","","","","","","","",""
"7509","","survey-likert","43","302032","0.0-42.0-0.0","AKP66RIZ3LQVX","","","","{""Q0"":"""",""Q1"":0,""Q2"":1}","","","","","","","","","","","","","","","","","","","","","","",""
"3710","","survey-text","44","305747","0.0-43.0-0.0","AKP66RIZ3LQVX","","","","{""Q0"":""rock""}","","","","","","","","","","","","","","","","","","","","","","",""
"19563","","survey-text","45","325312","0.0-44.0-0.0","AKP66RIZ3LQVX","","","","{""Q0"":""A very, very pretty piece - colors and shapes are great.""}","","","","","","","","","","","","","","","","","","","","","","",""
"3276","","image-slider-response","46","328590","0.0-45.0","AKP66RIZ3LQVX","","","","","34","","","","","","","","","","","","","","","","","","","","","",""
"2703","","image-button-response","47","333616","0.0-46.0","AKP66RIZ3LQVX","img_art/14.jpg","1","","","","","","","","","","","","","","","","","","","","","","","","",""
"901","","image-button-response","48","334520","0.0-47.0","AKP66RIZ3LQVX","img_art/14.jpg","1","","","","","","","","","","","","","","","","","","","","","","","","",""
"1715","","image-button-response","49","336237","0.0-48.0-0.0","AKP66RIZ3LQVX","img_art/14.jpg","4","","","","","","","","","","","","","","","","","","","","","","","","",""
"1705","","image-button-response","50","337945","0.0-49.0-0.0","AKP66RIZ3LQVX","img_art/14.jpg","3","","","","","","","","","","","","","","","","","","","","","","","","",""
"null","","html-keyboard-response","51","338447","0.0-50.0","AKP66RIZ3LQVX","<p style=""font-size: 48px;"">+</p>","","","","","null","allTrialResponses","500","1","1","img_art/14.jpg","34","A very, very pretty piece - colors and shapes are great.","Corey,Benjamin,Logan,Charles,Lucas,Isaiah","its okay. pretty bland but looks like nature,8,260,20","Reminds me of the outdoors.,12,260,20","I dont really vibe with the grayish color palette,-7,360,20","In some ways it looks natural, but I'm just not feeling it,0,100,20","In my opinion it's spectacular.,35,380,20","I feel uncomfortable looking at this painting, it is a mess that needs to be cleaned up.,-16,300,20","Benjamin","Reminds me of the outdoors.,12,260,20","Lucas","In my opinion it's spectacular.,35,380,20","Charles","In some ways it looks natural, but I'm just not feeling it,0,100,20","2"
"17457","","survey-text","52","355908","0.0-51.0-0.0","AKP66RIZ3LQVX","","","","{""Q0"":""I love the brushstrokes on this one.""}","","","","","","","","","","","","","","","","","","","","","","",""
"2738.300000190735","","image-slider-response","53","358648","0.0-52.0","AKP66RIZ3LQVX","","","","","34","","","","","","","","","","","","","","","","","","","","","",""
"null","","image-button-response","54","363650","0.0-53.0","AKP66RIZ3LQVX","img_art/10.jpg","null","","","","","","","","","","","","","","","","","","","","","","","","",""
"4139","","image-button-response","55","367792","0.0-54.0","AKP66RIZ3LQVX","img_art/10.jpg","1","","","","","","","","","","","","","","","","","","","","","","","","",""
"897","","image-button-response","56","368691","0.0-55.0-0.0","AKP66RIZ3LQVX","img_art/10.jpg","0","","","","","","","","","","","","","","","","","","","","","","","","",""
"4364","","image-button-response","57","373058","0.0-56.0-0.0","AKP66RIZ3LQVX","img_art/10.jpg","4","","","","","","","","","","","","","","","","","","","","","","","","",""
"null","","html-keyboard-response","58","373560","0.0-57.0","AKP66RIZ3LQVX","<p style=""font-size: 48px;"">+</p>","","","","","null","allTrialResponses","500","1","2","img_art/10.jpg","34","I love the brushstrokes on this one.","Dakota,Benjamin,Brandon,Charles,Lucas,Elijah","I feel a state of readiness without anxiety.,24,280,20","This picture just seems depressing.,-26,260,20","Too abstract and it doesn't really remind me of anything,-40,320,20","Also too all over the place, I don't see any pattern or anything that's supposed to stand out,-19,100,20","For me, it looks like a giant ship on the sea and it's astonishing.,30,380,20","Makes me feel amazed,23,80,20","Benjamin","This picture just seems depressing.,-26,260,20","Dakota","I feel a state of readiness without anxiety.,24,280,20","Lucas","For me, it looks like a giant ship on the sea and it's astonishing.,30,380,20","2"
"23541","","survey-text","59","397105","0.0-58.0-0.0","AKP66RIZ3LQVX","","","","{""Q0"":""II like the gradients in the background and the way the splotches contrast against them.""}","","","","","","","","","","","","","","","","","","","","","","",""
"3586","","image-slider-response","60","400693","0.0-59.0","AKP66RIZ3LQVX","","","","","20","","","","","","","","","","","","","","","","","","","","","",""
"null","","image-button-response","61","405696","0.0-60.0","AKP66RIZ3LQVX","img_art/13.jpg","null","","","","","","","","","","","","","","","","","","","","","","","","",""
"596","","image-button-response","62","406294","0.0-61.0","AKP66RIZ3LQVX","img_art/13.jpg","1","","","","","","","","","","","","","","","","","","","","","","","","",""
"3752","","image-button-response","63","410048","0.0-62.0-0.0","AKP66RIZ3LQVX","img_art/13.jpg","3","","","","","","","","","","","","","","","","","","","","","","","","",""
"676","","image-button-response","64","410726","0.0-63.0-0.0","AKP66RIZ3LQVX","img_art/13.jpg","0","","","","","","","","","","","","","","","","","","","","","","","","",""
"null","","html-keyboard-response","65","411729","0.0-64.0","AKP66RIZ3LQVX","<p style=""font-size: 48px;"">+</p>","","","","","null","allTrialResponses","1000","1","3","img_art/13.jpg","20","II like the gradients in the background and the way the splotches contrast against them.","Dakota,Benjamin,Bryce,John,Lucas,Shane","water on my shower curtain - I feel refreshed, renewed,9,280,20","Reminds me of rain running down a window.,35,260,20","My favorite!,47,20,20","Pretty and it reminds me of rain droplets running down a window on a rainy day.,40,120,20","Incredible, curious.,20,380,20","Rain drops on a window,35,80,20","Benjamin","Reminds me of rain running down a window.,35,260,20","John","Pretty and it reminds me of rain droplets running down a window on a rainy day.,40,120,20","Dakota","water on my shower curtain - I feel refreshed, renewed,9,280,20","2"
"32194","","survey-text","66","443926","0.0-65.0-0.0","AKP66RIZ3LQVX","","","","{""Q0"":""It reminds me a lot of some of the old, historical battle paintings.""}","","","","","","","","","","","","","","","","","","","","","","",""
"2826.2000002861023","","image-slider-response","67","446754","0.0-66.0","AKP66RIZ3LQVX","","","","","33","","","","","","","","","","","","","","","","","","","","","",""
"null","","image-button-response","68","451759","0.0-67.0","AKP66RIZ3LQVX","img_art/21.jpg","null","","","","","","","","","","","","","","","","","","","","","","","","",""
"746","","image-button-response","69","452508","0.0-68.0","AKP66RIZ3LQVX","img_art/21.jpg","4","","","","","","","","","","","","","","","","","","","","","","","","",""
"2303","","image-button-response","70","454812","0.0-69.0-0.0","AKP66RIZ3LQVX","img_art/21.jpg","3","","","","","","","","","","","","","","","","","","","","","","","","",""
"545","","image-button-response","71","455359","0.0-70.0-0.0","AKP66RIZ3LQVX","img_art/21.jpg","0","","","","","","","","","","","","","","","","","","","","","","","","",""
"null","","html-keyboard-response","72","455861","0.0-71.0","AKP66RIZ3LQVX","<p style=""font-size: 48px;"">+</p>","","","","","null","allTrialResponses","500","1","4","img_art/21.jpg","33","It reminds me a lot of some of the old, historical battle paintings.","Dakota,Benjamin,Ryan,John,Noah,Jacob","a serene, calm and eloquent storm,9,280,20","sunset after the rain,49,260,20","Very calming and nice to look at,30,380,20","I like the colors that were used and the stark contrast between the two sides,25,120,20","brings up imagery of the sea and clashing, though not in a negative way,31,260,20","I like how the colors blend together like a beautiful sunset.,25,340,20","Noah","brings up imagery of the sea and clashing, though not in a negative way,31,260,20","John","I like the colors that were used and the stark contrast between the two sides,25,120,20","Dakota","a serene, calm and eloquent storm,9,280,20","2"
"19407","","survey-text","73","475272","0.0-72.0-0.0","AKP66RIZ3LQVX","","","","{""Q0"":""A very, very pretty one. The water is gorgeous.""}","","","","","","","","","","","","","","","","","","","","","","",""
"2939.5","","image-slider-response","74","478214","0.0-73.0","AKP66RIZ3LQVX","","","","","35","","","","","","","","","","","","","","","","","","","","","",""
"null","","image-button-response","75","483217","0.0-74.0","AKP66RIZ3LQVX","img_art/24.jpg","null","","","","","","","","","","","","","","","","","","","","","","","","",""
"1270","","image-button-response","76","484489","0.0-75.0","AKP66RIZ3LQVX","img_art/24.jpg","3","","","","","","","","","","","","","","","","","","","","","","","","",""
"5391","","image-button-response","77","489882","0.0-76.0-0.0","AKP66RIZ3LQVX","img_art/24.jpg","2","","","","","","","","","","","","","","","","","","","","","","","","",""
"995","","image-button-response","78","490879","0.0-77.0-0.0","AKP66RIZ3LQVX","img_art/24.jpg","0","","","","","","","","","","","","","","","","","","","","","","","","",""
"null","","html-keyboard-response","79","492380","0.0-78.0","AKP66RIZ3LQVX","<p style=""font-size: 48px;"">+</p>","","","","","null","allTrialResponses","1500","1","5","img_art/24.jpg","35","A very, very pretty one. The water is gorgeous.","Dakota,Shawn,Mitchell,John,Noah,Mark","chunky fresh color,27,280,20","Pretty but cheesy,-15,100,20","Nature, Peace, connected.,50,180,20","Beautiful.Nice use of colors and invokes feelings of serene and peace,40,120,20","this evokes a gutural reaction - it displeases me how similar it is to art I saw growing up,-30,260,20","Waterfall, and I love the coloring.,48,80,20","John","Beautiful.Nice use of colors and invokes feelings of serene and peace,40,120,20","Mitchell","Nature, Peace, connected.,50,180,20","Dakota","chunky fresh color,27,280,20","2"
"4337","","survey-text","80","496724","0.0-79.0-0.0","AKP66RIZ3LQVX","","","","{""Q0"":""sky""}","","","","","","","","","","","","","","","","","","","","","","",""
"36082","","survey-text","81","532808","0.0-80.0-0.0","AKP66RIZ3LQVX","","","","{""Q0"":""I'm not a fan of the frames that were painted in on this. Makes it seem flat.""}","","","","","","","","","","","","","","","","","","","","","","",""
"4192.199999809265","","image-slider-response","82","537002","0.0-81.0","AKP66RIZ3LQVX","","","","","-28","","","","","","","","","","","","","","","","","","","","","",""
"null","","image-button-response","83","542006","0.0-82.0","AKP66RIZ3LQVX","img_art/9.jpg","null","","","","","","","","","","","","","","","","","","","","","","","","",""
"3531","","image-button-response","84","545539","0.0-83.0","AKP66RIZ3LQVX","img_art/9.jpg","2","","","","","","","","","","","","","","","","","","","","","","","","",""
"1834","","image-button-response","85","547376","0.0-84.0-0.0","AKP66RIZ3LQVX","img_art/9.jpg","3","","","","","","","","","","","","","","","","","","","","","","","","",""
"742","","image-button-response","86","548121","0.0-85.0-0.0","AKP66RIZ3LQVX","img_art/9.jpg","4","","","","","","","","","","","","","","","","","","","","","","","","",""
"null","","html-keyboard-response","87","549624","0.0-86.0","AKP66RIZ3LQVX","<p style=""font-size: 48px;"">+</p>","","","","","null","allTrialResponses","1500","1","6","img_art/9.jpg","-28","I'm not a fan of the frames that were painted in on this. Makes it seem flat.","Dakota,David,Mitchell,John,Angel,Vincent","autopsy, morgue, dead corpses - don't like the flesh tones,-43,280,20","I like how design can be interpreted differently, I see a person sleeping or a mountainous region.,10,340,20","Cozy, In her own world. feminine .,30,180,20","Unpleasant, alot of dark colors and strange lines,-26,120,20","This feels dreamy. Like I'm seeing inside someone's head while they're sleeping.,20,180,20","This speaks to me like a personalities and sides and not all are nice,19,360,20","Mitchell","Cozy, In her own world. feminine .,30,180,20","John","Unpleasant, alot of dark colors and strange lines,-26,120,20","Angel","This feels dreamy. Like I'm seeing inside someone's head while they're sleeping.,20,180,20","2"
"32245","","survey-text","88","581873","0.0-87.0-0.0","AKP66RIZ3LQVX","","","","{""Q0"":""Bit macabre. The colors seem like splatters of blood on human flesh.""}","","","","","","","","","","","","","","","","","","","","","","",""
"3344.4000000953674","","image-slider-response","89","585219","0.0-88.0","AKP66RIZ3LQVX","","","","","36","","","","","","","","","","","","","","","","","","","","","",""
"null","","image-button-response","90","590222","0.0-89.0","AKP66RIZ3LQVX","img_art/3.jpg","null","","","","","","","","","","","","","","","","","","","","","","","","",""
"7822","","image-button-response","91","598047","0.0-90.0","AKP66RIZ3LQVX","img_art/3.jpg","3","","","","","","","","","","","","","","","","","","","","","","","","",""
"3939","","image-button-response","92","601989","0.0-91.0-0.0","AKP66RIZ3LQVX","img_art/3.jpg","2","","","","","","","","","","","","","","","","","","","","","","","","",""
"4861","","image-button-response","93","606852","0.0-92.0-0.0","AKP66RIZ3LQVX","img_art/3.jpg","4","","","","","","","","","","","","","","","","","","","","","","","","",""
"null","","html-keyboard-response","94","608354","0.0-93.0","AKP66RIZ3LQVX","<p style=""font-size: 48px;"">+</p>","","","","","null","allTrialResponses","1500","1","7","img_art/3.jpg","36","Bit macabre. The colors seem like splatters of blood on human flesh.","Edward,Brett,Mitchell,John,Angel,Mason","It looks like someone took a red sharpie and just scribbled angrily,-20,60,20","Confusion and mayhem,-10,360,20","Anger, like something a serial killer may paint.,-30,180,20","Looks like someone spilled ketchup and forgot to clean it up,-30,120,20","This gives me a negative feeling, like someone trying to scratch out their flaws. I see low self-esteem.,-20,180,20","scribbles in red. 2 minute piece.,-30,100,20","John","Looks like someone spilled ketchup and forgot to clean it up,-30,120,20","Mitchell","Anger, like something a serial killer may paint.,-30,180,20","Angel","This gives me a negative feeling, like someone trying to scratch out their flaws. I see low self-esteem.,-20,180,20","2"
"13463","","survey-text","95","621822","0.0-94.0-0.0","AKP66RIZ3LQVX","","","","{""Q0"":""It reminds me of a distorted cityscape.""}","","","","","","","","","","","","","","","","","","","","","","",""
"2529.9000000953674","","image-slider-response","96","624354","0.0-95.0","AKP66RIZ3LQVX","","","","","23","","","","","","","","","","","","","","","","","","","","","",""
"null","","image-button-response","97","629357","0.0-96.0","AKP66RIZ3LQVX","img_art/11.jpg","null","","","","","","","","","","","","","","","","","","","","","","","","",""
"1876","","image-button-response","98","631235","0.0-97.0","AKP66RIZ3LQVX","img_art/11.jpg","5","","","","","","","","","","","","","","","","","","","","","","","","",""
"1840","","image-button-response","99","633078","0.0-98.0-0.0","AKP66RIZ3LQVX","img_art/11.jpg","4","","","","","","","","","","","","","","","","","","","","","","","","",""
"3527","","image-button-response","100","636608","0.0-99.0-0.0","AKP66RIZ3LQVX","img_art/11.jpg","1","","","","","","","","","","","","","","","","","","","","","","","","",""
"null","","html-keyboard-response","101","637109","0.0-100.0","AKP66RIZ3LQVX","<p style=""font-size: 48px;"">+</p>","","","","","null","allTrialResponses","500","1","8","img_art/11.jpg","23","It reminds me of a distorted cityscape.","Trevor,Seth,Mitchell,John,Angel,Tyler","I like how it looks like buildings but i'm not a fan of colors,20,280,20","It makes my head feel dizzy. So I rated it lower.,-25,60,20","Busy city life. transportation, anxiety.,10,180,20","Its interesting.,20,120,20","This is disorienting, like motion sickness.,-20,180,20","Rainy day at an urban sea port. Portugal?,30,320,20","Tyler","Rainy day at an urban sea port. Portugal?,30,320,20","Angel","This is disorienting, like motion sickness.,-20,180,20","Seth","It makes my head feel dizzy. So I rated it lower.,-25,60,20","2"
"37614","","survey-text","102","674727","0.0-101.0-0.0","AKP66RIZ3LQVX","","","","{""Q0"":""While it has a very nice texture to it, I'm not a huge fan of the composition itself.""}","","","","","","","","","","","","","","","","","","","","","","",""
"2898.4000000953674","","image-slider-response","103","677627","0.0-102.0","AKP66RIZ3LQVX","","","","","-31","","","","","","","","","","","","","","","","","","","","","",""
"null","","image-button-response","104","682631","0.0-103.0","AKP66RIZ3LQVX","img_art/30.jpg","null","","","","","","","","","","","","","","","","","","","","","","","","",""
"1374","","image-button-response","105","684007","0.0-104.0","AKP66RIZ3LQVX","img_art/30.jpg","4","","","","","","","","","","","","","","","","","","","","","","","","",""
"3167","","image-button-response","106","687176","0.0-105.0-0.0","AKP66RIZ3LQVX","img_art/30.jpg","5","","","","","","","","","","","","","","","","","","","","","","","","",""
"2382","","image-button-response","107","689561","0.0-106.0-0.0","AKP66RIZ3LQVX","img_art/30.jpg","1","","","","","","","","","","","","","","","","","","","","","","","","",""
"null","","html-keyboard-response","108","690562","0.0-107.0","AKP66RIZ3LQVX","<p style=""font-size: 48px;"">+</p>","","","","","null","allTrialResponses","1000","1","9","img_art/30.jpg","-31","While it has a very nice texture to it, I'm not a huge fan of the composition itself.","Colton,Seth,Eric,Dalton,Angel,Tyler","too segmented, looks sloppy,-37,220,20","I love the color contrast of the red against the blue.,9,60,20","I love the colors, the style, and the uniqueness in this piece. I love everything.,50,100,20","beautiful paint brush strokes,1,300,20","It's like a child's art piece: carefree and not trying to conform to anything.,10,180,20","Interesting brushstroke work, but not particularly memorable.,21,320,20","Angel","It's like a child's art piece: carefree and not trying to conform to anything.,10,180,20","Tyler","Interesting brushstroke work, but not particularly memorable.,21,320,20","Seth","I love the color contrast of the red against the blue.,9,60,20","2"
"24523","","survey-text","109","715089","0.0-108.0-0.0","AKP66RIZ3LQVX","","","","{""Q0"":""Very mind-tearing and abstract. Difficult to look at, but neat.""}","","","","","","","","","","","","","","","","","","","","","","",""
"3731.0999999046326","","image-slider-response","110","718822","0.0-109.0","AKP66RIZ3LQVX","","","","","5","","","","","","","","","","","","","","","","","","","","","",""
"null","","image-button-response","111","723824","0.0-110.0","AKP66RIZ3LQVX","img_art/8.jpg","null","","","","","","","","","","","","","","","","","","","","","","","","",""
"1700","","image-button-response","112","725526","0.0-111.0","AKP66RIZ3LQVX","img_art/8.jpg","3","","","","","","","","","","","","","","","","","","","","","","","","",""
"2672","","image-button-response","113","728201","0.0-112.0-0.0","AKP66RIZ3LQVX","img_art/8.jpg","1","","","","","","","","","","","","","","","","","","","","","","","","",""
"1740","","image-button-response","114","729943","0.0-113.0-0.0","AKP66RIZ3LQVX","img_art/8.jpg","4","","","","","","","","","","","","","","","","","","","","","","","","",""
"null","","html-keyboard-response","115","731444","0.0-114.0","AKP66RIZ3LQVX","<p style=""font-size: 48px;"">+</p>","","","","","null","allTrialResponses","1500","1","10","img_art/8.jpg","5","Very mind-tearing and abstract. Difficult to look at, but neat.","Jared,Seth,Brendan,Dustin,Angel,Tyler","i love the colors, the church and the face,42,400,20","I don't care for the piece, but I appreciate the talent that it took to create it.,22,60,20","beautiful buildings,32,340,20","I like the colors. But I don't like the faces, they look distraught. Faces and sharp shapes make me anxious,1,20,20","The angle makes it kind of disorienting but I enjoy the fantastical colors and imagery. It's like a dream.,10,180,20","The composition is striking, and some of the images are quite dramatic,11,320,20","Dustin","I like the colors. But I don't like the faces, they look distraught. Faces and sharp shapes make me anxious,1,20,20","Seth","I don't care for the piece, but I appreciate the talent that it took to create it.,22,60,20","Angel","The angle makes it kind of disorienting but I enjoy the fantastical colors and imagery. It's like a dream.,10,180,20","2"
"2709","","survey-text","116","734162","0.0-115.0-0.0","AKP66RIZ3LQVX","","","","{""Q0"":""our""}","","","","","","","","","","","","","","","","","","","","","","",""
"22924","","survey-text","117","757087","0.0-116.0-0.0","AKP66RIZ3LQVX","","","","{""Q0"":""A very careful composition, but a bit too abstract for my tastes.""}","","","","","","","","","","","","","","","","","","","","","","",""
"3395.4000000953674","","image-slider-response","118","760485","0.0-117.0","AKP66RIZ3LQVX","","","","","-21","","","","","","","","","","","","","","","","","","","","","",""
"null","","image-button-response","119","765488","0.0-118.0","AKP66RIZ3LQVX","img_art/28.jpg","null","","","","","","","","","","","","","","","","","","","","","","","","",""
"3460","","image-button-response","120","768951","0.0-119.0","AKP66RIZ3LQVX","img_art/28.jpg","0","","","","","","","","","","","","","","","","","","","","","","","","",""
"2693","","image-button-response","121","771646","0.0-120.0-0.0","AKP66RIZ3LQVX","img_art/28.jpg","3","","","","","","","","","","","","","","","","","","","","","","","","",""
"1923","","image-button-response","122","773571","0.0-121.0-0.0","AKP66RIZ3LQVX","img_art/28.jpg","4","","","","","","","","","","","","","","","","","","","","","","","","",""
"null","","html-keyboard-response","123","774073","0.0-122.0","AKP66RIZ3LQVX","<p style=""font-size: 48px;"">+</p>","","","","","null","allTrialResponses","500","1","11","img_art/28.jpg","-21","A very careful composition, but a bit too abstract for my tastes.","Bradley,Seth,Matthew,Dustin,Angel,Alex","I think this may have to do with humpty dumpty?,-7,300,20","I think this piece is interesting. I love the faces drawn into it.,29,60,20","Normally don't react well to abstract art, but it looks almost like something's there.,28,120,20","Like the muted pink colors. However, the mood is sad because of the blurriness,22,20,20","My immediate reaction was to think of smog. It recalls choking on dirty air.,-20,180,20","This piece is depressing to me, reminds me of German paintings,-6,100,20","Bradley","I think this may have to do with humpty dumpty?,-7,300,20","Dustin","Like the muted pink colors. However, the mood is sad because of the blurriness,22,20,20","Angel","My immediate reaction was to think of smog. It recalls choking on dirty air.,-20,180,20","2"
"36390","","survey-text","124","810468","0.0-123.0-0.0","AKP66RIZ3LQVX","","","","{""Q0"":""Not awful, but I can't help but see Mcdonald's fries.""}","","","","","","","","","","","","","","","","","","","","","","",""
"3264.199999809265","","image-slider-response","125","813734","0.0-124.0","AKP66RIZ3LQVX","","","","","-12","","","","","","","","","","","","","","","","","","","","","",""
"null","","image-button-response","126","818737","0.0-125.0","AKP66RIZ3LQVX","img_art/4.jpg","null","","","","","","","","","","","","","","","","","","","","","","","","",""
"6878","","image-button-response","127","825618","0.0-126.0","AKP66RIZ3LQVX","img_art/4.jpg","3","","","","","","","","","","","","","","","","","","","","","","","","",""
"2391","","image-button-response","128","828012","0.0-127.0-0.0","AKP66RIZ3LQVX","img_art/4.jpg","4","","","","","","","","","","","","","","","","","","","","","","","","",""
"1724","","image-button-response","129","829739","0.0-128.0-0.0","AKP66RIZ3LQVX","img_art/4.jpg","0","","","","","","","","","","","","","","","","","","","","","","","","",""
"null","","html-keyboard-response","130","830741","0.0-129.0","AKP66RIZ3LQVX","<p style=""font-size: 48px;"">+</p>","","","","","null","allTrialResponses","1000","1","12","img_art/4.jpg","-12","Not awful, but I can't help but see Mcdonald's fries.","Bradley,Robert,Jesse,Dustin,Angel,Daniel","This looks like what happens when someone steps on a mustard packet.,-7,300,20","It looks like a hand someone scribbled over,-30,360,20","I like the warmth in the colors. Its reassuring.,9,80,20","Warm colors, but too random. I feel like I'm seeing something mangled. It is unpleasant.,-30,20,20","I feel kind of guilty looking at this, like I'm receiving a reward I don't I deserve.,-10,180,20","Better version of a 7 year old who got lucky,-23,320,20","Dustin","Warm colors, but too random. I feel like I'm seeing something mangled. It is unpleasant.,-30,20,20","Angel","I feel kind of guilty looking at this, like I'm receiving a reward I don't I deserve.,-10,180,20","Bradley","This looks like what happens when someone steps on a mustard packet.,-7,300,20","2"
"22227","","survey-text","131","852973","0.0-130.0-0.0","AKP66RIZ3LQVX","","","","{""Q0"":""A very solemn piece, with what could be a single tree surviving all alone.""}","","","","","","","","","","","","","","","","","","","","","","",""
"4066.2999997138977","","image-slider-response","132","857041","0.0-131.0","AKP66RIZ3LQVX","","","","","20","","","","","","","","","","","","","","","","","","","","","",""
"null","","image-button-response","133","862044","0.0-132.0","AKP66RIZ3LQVX","img_art/6.jpg","null","","","","","","","","","","","","","","","","","","","","","","","","",""
"1062","","image-button-response","134","863108","0.0-133.0","AKP66RIZ3LQVX","img_art/6.jpg","1","","","","","","","","","","","","","","","","","","","","","","","","",""
"1081","","image-button-response","135","864192","0.0-134.0-0.0","AKP66RIZ3LQVX","img_art/6.jpg","2","","","","","","","","","","","","","","","","","","","","","","","","",""
"2235","","image-button-response","136","866431","0.0-135.0-0.0","AKP66RIZ3LQVX","img_art/6.jpg","4","","","","","","","","","","","","","","","","","","","","","","","","",""
"null","","html-keyboard-response","137","866933","0.0-136.0","AKP66RIZ3LQVX","<p style=""font-size: 48px;"">+</p>","","","","","null","allTrialResponses","500","1","13","img_art/6.jpg","20","A very solemn piece, with what could be a single tree surviving all alone.","Bradley,Austin,Samuel,Dustin,Angel,Peter","It's okay. It kind of looks like a bird with his head buried in his feathers.,2,300,20","Love the simplicity of it,41,240,20","surviving the dryness of life,30,400,20","I like the warmth of the orange. But, I feel like it's a partial view. I'm frustrated I can't see the entirety.,-20,20,20","This piece feels hopeful, like an oasis in the desert.,20,180,20","Don't like the black space,2,320,20","Austin","Love the simplicity of it,41,240,20","Samuel","surviving the dryness of life,30,400,20","Angel","This piece feels hopeful, like an oasis in the desert.,20,180,20","2"
"43473","","survey-text","138","910409","0.0-137.0-0.0","AKP66RIZ3LQVX","","","","{""Q0"":""It looks like a nightclub - the flashing lights in the background, and the white splotches dancing in the foreground..""}","","","","","","","","","","","","","","","","","","","","","","",""
"4765.800000190735","","image-slider-response","139","915177","0.0-138.0","AKP66RIZ3LQVX","","","","","39","","","","","","","","","","","","","","","","","","","","","",""
"null","","image-button-response","140","920180","0.0-139.0","AKP66RIZ3LQVX","img_art/23.jpg","null","","","","","","","","","","","","","","","","","","","","","","","","",""
"4803","","image-button-response","141","924985","0.0-140.0","AKP66RIZ3LQVX","img_art/23.jpg","0","","","","","","","","","","","","","","","","","","","","","","","","",""
"1682","","image-button-response","142","926669","0.0-141.0-0.0","AKP66RIZ3LQVX","img_art/23.jpg","1","","","","","","","","","","","","","","","","","","","","","","","","",""
"1774","","image-button-response","143","928445","0.0-142.0-0.0","AKP66RIZ3LQVX","img_art/23.jpg","2","","","","","","","","","","","","","","","","","","","","","","","","",""
"null","","html-keyboard-response","144","929447","0.0-143.0","AKP66RIZ3LQVX","<p style=""font-size: 48px;"">+</p>","","","","","null","allTrialResponses","1000","1","14","img_art/23.jpg","39","It looks like a nightclub - the flashing lights in the background, and the white splotches dancing in the foreground..","Zachary,Austin,Samuel,Alexis,Angel,Devon","Vivid colors and the white in the middle looks like people dancing.,31,400,20","Fantastic blend of color and forms,43,240,20","happiness in the universe,28,400,20","It looks like a parade of musicians full of excitement. Makes me feel upbeat,33,140,20","I feel positive community and comfort. Singing along at a concert, united with a bunch of strangers through shared joy.,20,180,20","i cannot breath in this,-10,400,20","Zachary","Vivid colors and the white in the middle looks like people dancing.,31,400,20","Austin","Fantastic blend of color and forms,43,240,20","Samuel","happiness in the universe,28,400,20","2"
"27652","","survey-text","145","957104","0.0-144.0-0.0","AKP66RIZ3LQVX","","","","{""Q0"":""It looks like a giant tree of life encroaching on the uniformity that is humanity""}","","","","","","","","","","","","","","","","","","","","","","",""
"3884.0999999046326","","image-slider-response","146","960990","0.0-145.0","AKP66RIZ3LQVX","","","","","44","","","","","","","","","","","","","","","","","","","","","",""
"null","","image-button-response","147","965994","0.0-146.0","AKP66RIZ3LQVX","img_art/17.jpg","null","","","","","","","","","","","","","","","","","","","","","","","","",""
"719","","image-button-response","148","966715","0.0-147.0","AKP66RIZ3LQVX","img_art/17.jpg","0","","","","","","","","","","","","","","","","","","","","","","","","",""
"1058","","image-button-response","149","967776","0.0-148.0-0.0","AKP66RIZ3LQVX","img_art/17.jpg","3","","","","","","","","","","","","","","","","","","","","","","","","",""
"1605","","image-button-response","150","969385","0.0-149.0-0.0","AKP66RIZ3LQVX","img_art/17.jpg","4","","","","","","","","","","","","","","","","","","","","","","","","",""
"null","","html-keyboard-response","151","970887","0.0-150.0","AKP66RIZ3LQVX","<p style=""font-size: 48px;"">+</p>","","","","","null","allTrialResponses","1500","1","15","img_art/17.jpg","44","It looks like a giant tree of life encroaching on the uniformity that is humanity","Zachary,Austin,Samuel,Anthony,Cody,Brian","Reminds me of a beautiful tree growing in a courtyard. I like the light and airy technique used.,34,400,20","Has a unique vibe to it,50,240,20","muted tones brings me down,-13,400,20","Very elegant, this design reminds me of trees,31,200,20","Love the colors and the movement,46,180,20","I'm not into paintings of trees,-18,380,20","Zachary","Reminds me of a beautiful tree growing in a courtyard. I like the light and airy technique used.,34,400,20","Anthony","Very elegant, this design reminds me of trees,31,200,20","Cody","Love the colors and the movement,46,180,20","2"
"9114","","survey-text","152","980008","0.0-151.0-0.0","AKP66RIZ3LQVX","","","","{""Q0"":""course""}","","","","","","","","","","","","","","","","","","","","","","",""
"14559","","survey-text","153","994569","0.0-152.0-0.0","AKP66RIZ3LQVX","","","","{""Q0"":""Not a huge fan of the colors...""}","","","","","","","","","","","","","","","","","","","","","","",""
"2874.2999997138977","","image-slider-response","154","997446","0.0-153.0","AKP66RIZ3LQVX","","","","","-45","","","","","","","","","","","","","","","","","","","","","",""
"null","","image-button-response","155","1002449","0.0-154.0","AKP66RIZ3LQVX","img_art/2.jpg","null","","","","","","","","","","","","","","","","","","","","","","","","",""
"610","","image-button-response","156","1003062","0.0-155.0","AKP66RIZ3LQVX","img_art/2.jpg","4","","","","","","","","","","","","","","","","","","","","","","","","",""
"1540","","image-button-response","157","1004604","0.0-156.0-0.0","AKP66RIZ3LQVX","img_art/2.jpg","3","","","","","","","","","","","","","","","","","","","","","","","","",""
"493","","image-button-response","158","1005100","0.0-157.0-0.0","AKP66RIZ3LQVX","img_art/2.jpg","5","","","","","","","","","","","","","","","","","","","","","","","","",""
"null","","html-keyboard-response","159","1005602","0.0-158.0","AKP66RIZ3LQVX","<p style=""font-size: 48px;"">+</p>","","","","","null","allTrialResponses","500","1","16","img_art/2.jpg","-45","Not a huge fan of the colors...","Zachary,William,Jack,Anthony,Cody,Juan","I am not a fan of the color story. I am confused by the piece and therefore do not like it.,-21,400,20","I like the colors,22,380,20","the colors are a bit odd, and the squiggly line at the top is distracting,0,320,20","Ugly color scheme,-50,200,20","Don't love the colors,-30,180,20","I don't like the abstract nature of this painting or the colors used.,-50,260,20","Cody","Don't love the colors,-30,180,20","Anthony","Ugly color scheme,-50,200,20","Juan","I don't like the abstract nature of this painting or the colors used.,-50,260,20","2"
"19022","","survey-text","160","1024630","0.0-159.0-0.0","AKP66RIZ3LQVX","","","","{""Q0"":""I like the contrast between warm and cool, but that's about it.""}","","","","","","","","","","","","","","","","","","","","","","",""
"2680.3999996185303","","image-slider-response","161","1027312","0.0-160.0","AKP66RIZ3LQVX","","","","","5","","","","","","","","","","","","","","","","","","","","","",""
"null","","image-button-response","162","1032316","0.0-161.0","AKP66RIZ3LQVX","img_art/27.jpg","null","","","","","","","","","","","","","","","","","","","","","","","","",""
"427","","image-button-response","163","1032744","0.0-162.0","AKP66RIZ3LQVX","img_art/27.jpg","0","","","","","","","","","","","","","","","","","","","","","","","","",""
"783","","image-button-response","164","1033530","0.0-163.0-0.0","AKP66RIZ3LQVX","img_art/27.jpg","4","","","","","","","","","","","","","","","","","","","","","","","","",""
"2335","","image-button-response","165","1035868","0.0-164.0-0.0","AKP66RIZ3LQVX","img_art/27.jpg","1","","","","","","","","","","","","","","","","","","","","","","","","",""
"null","","html-keyboard-response","166","1037369","0.0-165.0","AKP66RIZ3LQVX","<p style=""font-size: 48px;"">+</p>","","","","","null","allTrialResponses","1500","1","17","img_art/27.jpg","5","I like the contrast between warm and cool, but that's about it.","Marcus,Miguel,Kevin,Anthony,Cody,Juan","It's okay. Not really interesting to me.,-10,60,20","Adult contemporary painting with child.,-33,160,20","A fall mess going on here,2,320,20","Somewhat boring piece,-3,200,20","Not sure how I feel about this. Messy, even for art. But good colors.,0,180,20","Colors make me think of fall, but I don't like how the picture was done or the weird lines across the background,6,260,20","Marcus","It's okay. Not really interesting to me.,-10,60,20","Cody","Not sure how I feel about this. Messy, even for art. But good colors.,0,180,20","Miguel","Adult contemporary painting with child.,-33,160,20","2"
"23378","","survey-text","167","1060752","0.0-166.0-0.0","AKP66RIZ3LQVX","","","","{""Q0"":""A very pretty, morphed, glitchy-looking painting. I like it.""}","","","","","","","","","","","","","","","","","","","","","","",""
"3057.699999809265","","image-slider-response","168","1063812","0.0-167.0","AKP66RIZ3LQVX","","","","","29","","","","","","","","","","","","","","","","","","","","","",""
"null","","image-button-response","169","1068814","0.0-168.0","AKP66RIZ3LQVX","img_art/12.jpg","null","","","","","","","","","","","","","","","","","","","","","","","","",""
"3135","","image-button-response","170","1071952","0.0-169.0","AKP66RIZ3LQVX","img_art/12.jpg","2","","","","","","","","","","","","","","","","","","","","","","","","",""
"1601","","image-button-response","171","1073555","0.0-170.0-0.0","AKP66RIZ3LQVX","img_art/12.jpg","0","","","","","","","","","","","","","","","","","","","","","","","","",""
"1780","","image-button-response","172","1075337","0.0-171.0-0.0","AKP66RIZ3LQVX","img_art/12.jpg","4","","","","","","","","","","","","","","","","","","","","","","","","",""
"null","","html-keyboard-response","173","1075839","0.0-172.0","AKP66RIZ3LQVX","<p style=""font-size: 48px;"">+</p>","","","","","null","allTrialResponses","500","1","18","img_art/12.jpg","29","A very pretty, morphed, glitchy-looking painting. I like it.","Marcus,Miguel,Jorge,Scott,Cody,Gregory","I like the colors in the bottom half of the painting,10,60,20","Good too basic.,18,160,20","Windows to a different story,6,180,20","I don't like the pattern or color choice,-41,20,20","Pretty but not a huge fan of the colors,20,180,20","Black and white contrast with color looks nice,15,220,20","Jorge","Windows to a different story,6,180,20","Marcus","I like the colors in the bottom half of the painting,10,60,20","Cody","Pretty but not a huge fan of the colors,20,180,20","2"
"18954","","survey-text","174","1094796","0.0-173.0-0.0","AKP66RIZ3LQVX","","","","{""Q0"":""Reminds me of a prophet, with the followers looking up at him and praising.""}","","","","","","","","","","","","","","","","","","","","","","",""
"2973.199999809265","","image-slider-response","175","1097771","0.0-174.0","AKP66RIZ3LQVX","","","","","26","","","","","","","","","","","","","","","","","","","","","",""
"null","","image-button-response","176","1102775","0.0-175.0","AKP66RIZ3LQVX","img_art/25.jpg","null","","","","","","","","","","","","","","","","","","","","","","","","",""
"1293","","image-button-response","177","1104070","0.0-176.0","AKP66RIZ3LQVX","img_art/25.jpg","4","","","","","","","","","","","","","","","","","","","","","","","","",""
"1490","","image-button-response","178","1105562","0.0-177.0-0.0","AKP66RIZ3LQVX","img_art/25.jpg","5","","","","","","","","","","","","","","","","","","","","","","","","",""
"1345","","image-button-response","179","1106910","0.0-178.0-0.0","AKP66RIZ3LQVX","img_art/25.jpg","2","","","","","","","","","","","","","","","","","","","","","","","","",""
"null","","html-keyboard-response","180","1108412","0.0-179.0","AKP66RIZ3LQVX","<p style=""font-size: 48px;"">+</p>","","","","","null","allTrialResponses","1500","1","19","img_art/25.jpg","26","Reminds me of a prophet, with the followers looking up at him and praising.","Marcus,Bryan,Jorge,Jason,Cody,Steven","Ugly green color and don't like it at all,-30,60,20","Scary. Something out of a Stephen King book/movie.,-31,400,20","Somewhat feel protected by a messenger,33,180,20","Love the simplicity and lines,20,20,20","Like the colors and the figure,30,180,20","It's fine, belongs in a church, or somewhere else mystical,15,160,20","Cody","Like the colors and the figure,30,180,20","Steven","It's fine, belongs in a church, or somewhere else mystical,15,160,20","Jorge","Somewhat feel protected by a messenger,33,180,20","2"
"25704","","survey-text","181","1134120","0.0-180.0-0.0","AKP66RIZ3LQVX","","","","{""Q0"":""The colors are impressively mixed together. It all blurs and blends together.""}","","","","","","","","","","","","","","","","","","","","","","",""
"2287.300000190735","","image-slider-response","182","1136410","0.0-181.0","AKP66RIZ3LQVX","","","","","37","","","","","","","","","","","","","","","","","","","","","",""
"null","","image-button-response","183","1141413","0.0-182.0","AKP66RIZ3LQVX","img_art/1.jpg","null","","","","","","","","","","","","","","","","","","","","","","","","",""
"877","","image-button-response","184","1142292","0.0-183.0","AKP66RIZ3LQVX","img_art/1.jpg","4","","","","","","","","","","","","","","","","","","","","","","","","",""
"2898","","image-button-response","185","1145193","0.0-184.0-0.0","AKP66RIZ3LQVX","img_art/1.jpg","1","","","","","","","","","","","","","","","","","","","","","","","","",""
"2033","","image-button-response","186","1147229","0.0-185.0-0.0","AKP66RIZ3LQVX","img_art/1.jpg","5","","","","","","","","","","","","","","","","","","","","","","","","",""
"null","","html-keyboard-response","187","1147731","0.0-186.0","AKP66RIZ3LQVX","<p style=""font-size: 48px;"">+</p>","","","","","null","allTrialResponses","500","1","20","img_art/1.jpg","37","The colors are impressively mixed together. It all blurs and blends together.","Taylor,Cole,Jorge,Malik,Cody,Steven","Deja vu. Haven't I seen this one before? Not bad for those living in the backwoods.,10,200,20","I like the colors. But it doesnt look like anything,27,200,20","fishing on the lake surrounded by trees,42,180,20","Vague and directionless,-14,40,20","Pretty, nice use of color,40,180,20","It's fine, but its like something you'd see in the restroom of a cheap restaurant,10,160,20","Cody","Pretty, nice use of color,40,180,20","Cole","I like the colors. But it doesnt look like anything,27,200,20","Steven","It's fine, but its like something you'd see in the restroom of a cheap restaurant,10,160,20","2"
"2915","","survey-text","188","1150654","0.0-187.0-0.0","AKP66RIZ3LQVX","","","","{""Q0"":""we""}","","","","","","","","","","","","","","","","","","","","","","",""
"15606","","survey-text","189","1166262","0.0-188.0-0.0","AKP66RIZ3LQVX","","","","{""Q0"":""This one has a LOT of depth, it's great.""}","","","","","","","","","","","","","","","","","","","","","","",""
"4146.700000286102","","image-slider-response","190","1170411","0.0-189.0","AKP66RIZ3LQVX","","","","","30","","","","","","","","","","","","","","","","","","","","","",""
"null","","image-button-response","191","1175416","0.0-190.0","AKP66RIZ3LQVX","img_art/29.jpg","null","","","","","","","","","","","","","","","","","","","","","","","","",""
"3113","","image-button-response","192","1178531","0.0-191.0","AKP66RIZ3LQVX","img_art/29.jpg","3","","","","","","","","","","","","","","","","","","","","","","","","",""
"2118","","image-button-response","193","1180652","0.0-192.0-0.0","AKP66RIZ3LQVX","img_art/29.jpg","0","","","","","","","","","","","","","","","","","","","","","","","","",""
"2438","","image-button-response","194","1183093","0.0-193.0-0.0","AKP66RIZ3LQVX","img_art/29.jpg","5","","","","","","","","","","","","","","","","","","","","","","","","",""
"null","","html-keyboard-response","195","1184096","0.0-194.0","AKP66RIZ3LQVX","<p style=""font-size: 48px;"">+</p>","","","","","null","allTrialResponses","1000","1","21","img_art/29.jpg","30","This one has a LOT of depth, it's great.","Alejandro,Cole,Luis,Aaron,Cody,Steven","Reminiscent of Jackson Pollock with a hint of abstract structure with the bordering.,32,80,20","Looks like someone trying to make something they dont understand,-36,200,20","I love the representation of a mess,50,400,20","I like the texture and colors and how it makes me feel. I like how it's different from other abstract art.,45,20,20","Feels messy, stressful,-22,180,20","Yeah, I don't know. It's clearly a situation where art is the reject of something more,-27,160,20","Aaron","I like the texture and colors and how it makes me feel. I like how it's different from other abstract art.,45,20,20","Alejandro","Reminiscent of Jackson Pollock with a hint of abstract structure with the bordering.,32,80,20","Steven","Yeah, I don't know. It's clearly a situation where art is the reject of something more,-27,160,20","2"
"20545","","survey-text","196","1204646","0.0-195.0-0.0","AKP66RIZ3LQVX","","","","{""Q0"":""Reminds me of the surface of some alien planet.""}","","","","","","","","","","","","","","","","","","","","","","",""
"2891.5","","image-slider-response","197","1207539","0.0-196.0","AKP66RIZ3LQVX","","","","","19","","","","","","","","","","","","","","","","","","","","","",""
"null","","image-button-response","198","1212542","0.0-197.0","AKP66RIZ3LQVX","img_art/7.jpg","null","","","","","","","","","","","","","","","","","","","","","","","","",""
"395","","image-button-response","199","1212939","0.0-198.0","AKP66RIZ3LQVX","img_art/7.jpg","0","","","","","","","","","","","","","","","","","","","","","","","","",""
"826","","image-button-response","200","1213767","0.0-199.0-0.0","AKP66RIZ3LQVX","img_art/7.jpg","1","","","","","","","","","","","","","","","","","","","","","","","","",""
"1298","","image-button-response","201","1215068","0.0-200.0-0.0","AKP66RIZ3LQVX","img_art/7.jpg","4","","","","","","","","","","","","","","","","","","","","","","","","",""
"null","","html-keyboard-response","202","1216070","0.0-201.0","AKP66RIZ3LQVX","<p style=""font-size: 48px;"">+</p>","","","","","null","allTrialResponses","1000","1","22","img_art/7.jpg","19","Reminds me of the surface of some alien planet.","Alejandro,Nicholas,Devin,Aaron,Luke,Steven","I thought I was looking at a satellite image of mars.,21,80,20","Makes me want to feel it,19,240,20","Not very big on the sameness here,-20,380,20","It's kind of ugly but I like the texture.,10,20,20","reminds me of the desert,-20,20,20","looks like the surface of the moon.,1,160,20","Alejandro","I thought I was looking at a satellite image of mars.,21,80,20","Nicholas","Makes me want to feel it,19,240,20","Luke","reminds me of the desert,-20,20,20","2"
"25431","","survey-text","203","1241506","0.0-202.0-0.0","AKP66RIZ3LQVX","","","","{""Q0"":""Another nice example of blending colors, and the contrast created by the circle is nice.""}","","","","","","","","","","","","","","","","","","","","","","",""
"2691.199999809265","","image-slider-response","204","1244199","0.0-203.0","AKP66RIZ3LQVX","","","","","17","","","","","","","","","","","","","","","","","","","","","",""
"null","","image-button-response","205","1249203","0.0-204.0","AKP66RIZ3LQVX","img_art/22.jpg","null","","","","","","","","","","","","","","","","","","","","","","","","",""
"2350","","image-button-response","206","1251555","0.0-205.0","AKP66RIZ3LQVX","img_art/22.jpg","0","","","","","","","","","","","","","","","","","","","","","","","","",""
"1124","","image-button-response","207","1252682","0.0-206.0-0.0","AKP66RIZ3LQVX","img_art/22.jpg","1","","","","","","","","","","","","","","","","","","","","","","","","",""
"3463","","image-button-response","208","1256147","0.0-207.0-0.0","AKP66RIZ3LQVX","img_art/22.jpg","3","","","","","","","","","","","","","","","","","","","","","","","","",""
"null","","html-keyboard-response","209","1257150","0.0-208.0","AKP66RIZ3LQVX","<p style=""font-size: 48px;"">+</p>","","","","","null","allTrialResponses","1000","1","23","img_art/22.jpg","17","Another nice example of blending colors, and the contrast created by the circle is nice.","Alejandro,Nicholas,Spencer,Joseph,Luke,Jose","Beautiful use of chalk or pastels. Love the abstract nature.,35,80,20","Pretty colors but something seems sinister about it,25,240,20","Pretty colors but too blocky for me,-19,120,20","I don't like that it looks like a person is there upside down.,-16,220,20","the colors and shapes makes me want to keep looking at it,22,20,20","Cool squares but what's the circle?,38,200,20","Alejandro","Beautiful use of chalk or pastels. Love the abstract nature.,35,80,20","Nicholas","Pretty colors but something seems sinister about it,25,240,20","Joseph","I don't like that it looks like a person is there upside down.,-16,220,20","2"
"11212","","survey-text","210","1268366","0.0-209.0-0.0","AKP66RIZ3LQVX","","","","{""Q0"":""Not a huge fan of collages.""}","","","","","","","","","","","","","","","","","","","","","","",""
"6097.60000038147","","image-slider-response","211","1274466","0.0-210.0","AKP66RIZ3LQVX","","","","","-40","","","","","","","","","","","","","","","","","","","","","",""
"null","","image-button-response","212","1279470","0.0-211.0","AKP66RIZ3LQVX","img_art/16.jpg","null","","","","","","","","","","","","","","","","","","","","","","","","",""
"1187","","image-button-response","213","1280660","0.0-212.0","AKP66RIZ3LQVX","img_art/16.jpg","2","","","","","","","","","","","","","","","","","","","","","","","","",""
"1692","","image-button-response","214","1282354","0.0-213.0-0.0","AKP66RIZ3LQVX","img_art/16.jpg","0","","","","","","","","","","","","","","","","","","","","","","","","",""
"1002","","image-button-response","215","1283359","0.0-214.0-0.0","AKP66RIZ3LQVX","img_art/16.jpg","1","","","","","","","","","","","","","","","","","","","","","","","","",""
"null","","html-keyboard-response","216","1284862","0.0-215.0","AKP66RIZ3LQVX","<p style=""font-size: 48px;"">+</p>","","","","","null","allTrialResponses","1500","1","24","img_art/16.jpg","-40","Not a huge fan of collages.","Alejandro,Nicholas,Connor,Joseph,Adrian,Gabriel","Garble and nonsense,-50,80,20","Creepy teddybear,-50,240,20","Not original. Bear is odd,-50,240,20","Looks upsetting. Like it's actually graphic violence but you can't tell.,-24,220,20","It's depressing. Probably achieved its goal. But I wouldn't want it hanging in my home.,-31,60,20","its disturbing! what the heck,-27,160,20","Connor","Not original. Bear is odd,-50,240,20","Alejandro","Garble and nonsense,-50,80,20","Nicholas","Creepy teddybear,-50,240,20","2"
"10518","","survey-text","217","1295386","0.0-216.0-0.0","AKP66RIZ3LQVX","","","","{""Q0"":""It looks like an abstract street view.""}","","","","","","","","","","","","","","","","","","","","","","",""
"3100.8999996185303","","image-slider-response","218","1298489","0.0-217.0","AKP66RIZ3LQVX","","","","","22","","","","","","","","","","","","","","","","","","","","","",""
"null","","image-button-response","219","1303492","0.0-218.0","AKP66RIZ3LQVX","img_art/26.jpg","null","","","","","","","","","","","","","","","","","","","","","","","","",""
"1215","","image-button-response","220","1304709","0.0-219.0","AKP66RIZ3LQVX","img_art/26.jpg","2","","","","","","","","","","","","","","","","","","","","","","","","",""
"2511","","image-button-response","221","1307222","0.0-220.0-0.0","AKP66RIZ3LQVX","img_art/26.jpg","5","","","","","","","","","","","","","","","","","","","","","","","","",""
"621","","image-button-response","222","1307845","0.0-221.0-0.0","AKP66RIZ3LQVX","img_art/26.jpg","0","","","","","","","","","","","","","","","","","","","","","","","","",""
"null","","html-keyboard-response","223","1309347","0.0-222.0","AKP66RIZ3LQVX","<p style=""font-size: 48px;"">+</p>","","","","","null","allTrialResponses","1500","1","25","img_art/26.jpg","22","It looks like an abstract street view.","Alejandro,Nicholas,Connor,Nathan,Joshua,Jonathan","Do not like water colors at all,-50,80,20","I like the colors and trees. Seems cheap vintage retail store art but i love it anyways,50,240,20","City scene in a park,23,240,20","It's a little too yellow-y for me, I'm not a huge fan of the color schemes or setting it portrays.,-20,200,20","This is boring.,-15,240,20","It's relaxing to look at but I wish it was just a little more defined,20,140,20","Connor","City scene in a park,23,240,20","Jonathan","It's relaxing to look at but I wish it was just a little more defined,20,140,20","Alejandro","Do not like water colors at all,-50,80,20","2"
"4319","","survey-text","224","1313675","0.0-223.0-0.0","AKP66RIZ3LQVX","","","","{""Q0"":""table""}","","","","","","","","","","","","","","","","","","","","","","",""
"15423","","survey-text","225","1329100","0.0-224.0-0.0","AKP66RIZ3LQVX","","","","{""Q0"":""I'm really not feeling this one, at all...""}","","","","","","","","","","","","","","","","","","","","","","",""
"3894.199999809265","","image-slider-response","226","1332996","0.0-225.0","AKP66RIZ3LQVX","","","","","-50","","","","","","","","","","","","","","","","","","","","","",""
"null","","image-button-response","227","1337999","0.0-226.0","AKP66RIZ3LQVX","img_art/5.jpg","null","","","","","","","","","","","","","","","","","","","","","","","","",""
"788","","image-button-response","228","1338788","0.0-227.0","AKP66RIZ3LQVX","img_art/5.jpg","1","","","","","","","","","","","","","","","","","","","","","","","","",""
"1643","","image-button-response","229","1340434","0.0-228.0-0.0","AKP66RIZ3LQVX","img_art/5.jpg","5","","","","","","","","","","","","","","","","","","","","","","","","",""
"1323","","image-button-response","230","1341759","0.0-229.0-0.0","AKP66RIZ3LQVX","img_art/5.jpg","0","","","","","","","","","","","","","","","","","","","","","","","","",""
"null","","html-keyboard-response","231","1342261","0.0-230.0","AKP66RIZ3LQVX","<p style=""font-size: 48px;"">+</p>","","","","","null","allTrialResponses","500","1","26","img_art/5.jpg","-50","I'm really not feeling this one, at all...","Alejandro,Grant,Connor,Alexander,Jake,Jonathan","Confused as to what the artist is attempting to do.,-50,80,20","This elicits no reaction in me.,0,200,20","Flame, candle, wind,30,240,20","Dull pyramid that says nothing.,7,120,20","This is interesting and nice.,16,360,20","I hate the shapes,-30,140,20","Grant","This elicits no reaction in me.,0,200,20","Jonathan","I hate the shapes,-30,140,20","Alejandro","Confused as to what the artist is attempting to do.,-50,80,20","2"
"17636","","survey-text","232","1359903","0.0-231.0-0.0","AKP66RIZ3LQVX","","","","{""Q0"":""A good abstract piece, but it's nothing special.""}","","","","","","","","","","","","","","","","","","","","","","",""
"4428.099999904633","","image-slider-response","233","1364333","0.0-232.0","AKP66RIZ3LQVX","","","","","-10","","","","","","","","","","","","","","","","","","","","","",""
"null","","image-button-response","234","1369336","0.0-233.0","AKP66RIZ3LQVX","img_art/19.jpg","null","","","","","","","","","","","","","","","","","","","","","","","","",""
"513","","image-button-response","235","1369851","0.0-234.0","AKP66RIZ3LQVX","img_art/19.jpg","1","","","","","","","","","","","","","","","","","","","","","","","","",""
"1582","","image-button-response","236","1371435","0.0-235.0-0.0","AKP66RIZ3LQVX","img_art/19.jpg","2","","","","","","","","","","","","","","","","","","","","","","","","",""
"764","","image-button-response","237","1372202","0.0-236.0-0.0","AKP66RIZ3LQVX","img_art/19.jpg","4","","","","","","","","","","","","","","","","","","","","","","","","",""
"null","","html-keyboard-response","238","1373203","0.0-237.0","AKP66RIZ3LQVX","<p style=""font-size: 48px;"">+</p>","","","","","null","allTrialResponses","1000","1","27","img_art/19.jpg","-10","A good abstract piece, but it's nothing special.","Alejandro,Grant,Christian,James,Ian,Jonathan","It is an interesting piece but there are too many muted tones,22,80,20","It's a cute city scene, but nothing special.,10,200,20","interesting take on depth (reminds me of those 1000 piece puzzles),2,140,20","I don't know what's going on, and I realise that I don't like it,-21,380,20","It looks cool but at the time looks like it was done by a talented 5 year old.,13,260,20","Feels like something I would hang in my dining room,42,140,20","Grant","It's a cute city scene, but nothing special.,10,200,20","Christian","interesting take on depth (reminds me of those 1000 piece puzzles),2,140,20","Ian","It looks cool but at the time looks like it was done by a talented 5 year old.,13,260,20","2"
"18207","","survey-text","239","1391420","0.0-238.0-0.0","AKP66RIZ3LQVX","","","","{""Q0"":""Looks like a factory destroying a landscape.""}","","","","","","","","","","","","","","","","","","","","","","",""
"5892.400000095367","","image-slider-response","240","1397314","0.0-239.0","AKP66RIZ3LQVX","","","","","17","","","","","","","","","","","","","","","","","","","","","",""
"4710","","image-button-response","241","1402317","0.0-240.0","AKP66RIZ3LQVX","img_art/20.jpg","0","","","","","","","","","","","","","","","","","","","","","","","","",""
"418","","image-button-response","242","1402737","0.0-241.0","AKP66RIZ3LQVX","img_art/20.jpg","0","","","","","","","","","","","","","","","","","","","","","","","","",""
"623","","image-button-response","243","1403362","0.0-242.0-0.0","AKP66RIZ3LQVX","img_art/20.jpg","2","","","","","","","","","","","","","","","","","","","","","","","","",""
"580","","image-button-response","244","1403945","0.0-243.0-0.0","AKP66RIZ3LQVX","img_art/20.jpg","3","","","","","","","","","","","","","","","","","","","","","","","","",""
"null","","html-keyboard-response","245","1404447","0.0-244.0","AKP66RIZ3LQVX","<p style=""font-size: 48px;"">+</p>","","","","","null","allTrialResponses","500","1","28","img_art/20.jpg","17","Looks like a factory destroying a landscape.","Justin,Grant,Christian,Andrew,Ian,Hunter","The colors and the scene depicted is interesting.,13,280,20","This elicits no reaction in me.,0,200,20","reminds me of georgia o'keeffe's skull,22,140,20","I just love this painting,47,160,20","A painting within a painting, the inner painting looks like a car crash with a semi truck.,21,260,20","feels underdeveloped,-11,240,20","Justin","The colors and the scene depicted is interesting.,13,280,20","Christian","reminds me of georgia o'keeffe's skull,22,140,20","Andrew","I just love this painting,47,160,20","2"
"10228","","survey-text","246","1414680","0.0-245.0-0.0","AKP66RIZ3LQVX","","","","{""Q0"":""Looks to me like a blackberry bush.""}","","","","","","","","","","","","","","","","","","","","","","",""
"3115.199999809265","","image-slider-response","247","1417797","0.0-246.0","AKP66RIZ3LQVX","","","","","8","","","","","","","","","","","","","","","","","","","","","",""
"null","","image-button-response","248","1422801","0.0-247.0","AKP66RIZ3LQVX","img_art/15.jpg","null","","","","","","","","","","","","","","","","","","","","","","","","",""
"293","","image-button-response","249","1423096","0.0-248.0","AKP66RIZ3LQVX","img_art/15.jpg","3","","","","","","","","","","","","","","","","","","","","","","","","",""
"819","","image-button-response","250","1423916","0.0-249.0-0.0","AKP66RIZ3LQVX","img_art/15.jpg","5","","","","","","","","","","","","","","","","","","","","","","","","",""
"469","","image-button-response","251","1424388","0.0-250.0-0.0","AKP66RIZ3LQVX","img_art/15.jpg","1","","","","","","","","","","","","","","","","","","","","","","","","",""
"null","","html-keyboard-response","252","1424890","0.0-251.0","AKP66RIZ3LQVX","<p style=""font-size: 48px;"">+</p>","","","","","null","allTrialResponses","500","1","29","img_art/15.jpg","8","Looks to me like a blackberry bush.","Justin,Timothy,Christian,Andrew,Sean,Travis","Color scheme and design are rather boring.,-10,280,20","This painting gives a calm vibe but no stronger emotions than that,10,240,20","very unsettling! like reverse porcelain esp because of the colors,28,140,20","The blues are soothing,21,160,20","my response to the picture is that I dont know what I am looking at,-25,40,20","Hate it...black dots.,-47,260,20","Andrew","The blues are soothing,21,160,20","Travis","Hate it...black dots.,-47,260,20","Timothy","This painting gives a calm vibe but no stronger emotions than that,10,240,20","2"
"13497","","survey-text","253","1438393","0.0-252.0-0.0","AKP66RIZ3LQVX","","","","{""Q0"":""Lots of great movement and detail here.""}","","","","","","","","","","","","","","","","","","","","","","",""
"4088.300000190735","","image-slider-response","254","1442483","0.0-253.0","AKP66RIZ3LQVX","","","","","33","","","","","","","","","","","","","","","","","","","","","",""
"null","","image-button-response","255","1447486","0.0-254.0","AKP66RIZ3LQVX","img_art/18.jpg","null","","","","","","","","","","","","","","","","","","","","","","","","",""
"722","","image-button-response","256","1448210","0.0-255.0","AKP66RIZ3LQVX","img_art/18.jpg","4","","","","","","","","","","","","","","","","","","","","","","","","",""
"2181","","image-button-response","257","1450394","0.0-256.0-0.0","AKP66RIZ3LQVX","img_art/18.jpg","2","","","","","","","","","","","","","","","","","","","","","","","","",""
"1258","","image-button-response","258","1451655","0.0-257.0-0.0","AKP66RIZ3LQVX","img_art/18.jpg","3","","","","","","","","","","","","","","","","","","","","","","","","",""
"null","","html-keyboard-response","259","1452656","0.0-258.0","AKP66RIZ3LQVX","<p style=""font-size: 48px;"">+</p>","","","","","null","allTrialResponses","1000","1","30","img_art/18.jpg","33","Lots of great movement and detail here.","Patrick,Timothy,Garrett,Andrew,Evan,Travis","Too abstract and swirly,-21,280,20","This gives a very ominous feeling,-30,240,20","I think its supposed to be a boat and the boat looks kind of interesting to me.,10,180,20","Another ominous painting,-10,160,20","This brings to mind the four horsemen of the apocalypse,8,140,20","I don't know...kind of a dissatified feeling inside.,-6,260,20","Evan","This brings to mind the four horsemen of the apocalypse,8,140,20","Garrett","I think its supposed to be a boat and the boat looks kind of interesting to me.,10,180,20","Andrew","Another ominous painting,-10,160,20","2"
"3177","","image-button-response_instructions","260","1455840","0.0-259.0","AKP66RIZ3LQVX","","0","instructions","","","","","","","","","","","","","","","","","","","","","","","",""
"905","","image-button-response","261","1456751","0.0-260.0","AKP66RIZ3LQVX","","0","","","","","","","","","","","","","","","","","","","","","","","","",""
