"rt","url","trial_type","trial_index","time_elapsed","internal_node_id","participant_id","stimulus","button_pressed","Name","responses","response","key_press","variableName","fixationTime","condition","trial","photo","subjectRating","subjectResponse","agentsNames","agent_1_Response","agent_2_Response","agent_3_Response","agent_4_Response","agent_5_Response","agent_6_Response","kept_1_name","kept_1_response","kept_2_name","kept_2_response","kept_3_name","kept_3_response","errorCounter"
"41181","external_page_harvard.html","external-html","0","41490","0.0-0.0","AL4QXJSJQGT4H","","","","","","","","","","","","","","","","","","","","","","","","","","",""
"2123","","image-button-response","1","43616","0.0-1.0","AL4QXJSJQGT4H","","1","","","","","","","","","","","","","","","","","","","","","","","","",""
"1693","","image-button-response","2","45315","0.0-2.0-0.0","AL4QXJSJQGT4H","","1","phone","","","","","","","","","","","","","","","","","","","","","","","",""
"9431","","survey-text","3","54749","0.0-3.0-0.0","AL4QXJSJQGT4H","","","","{""Q0"":""AL4QXJSJQGT4H""}","","","","","","","","","","","","","","","","","","","","","","",""
"4542","","image-button-response_instructions","4","59293","0.0-4.0","AL4QXJSJQGT4H","","0","instructions","","","","","","","","","","","","","","","","","","","","","","","",""
"36597","","image-button-response_instructions","5","95893","0.0-5.0","AL4QXJSJQGT4H","img_art/ins/popularity/ins1.png","0","instructions","","","","","","","","","","","","","","","","","","","","","","","",""
"2353","","image-button-response_instructions","6","98248","0.0-6.0","AL4QXJSJQGT4H","img_art/ins/popularity/ins2.png","0","instructions","","","","","","","","","","","","","","","","","","","","","","","",""
"4054","","image-button-response_instructions","7","102303","0.0-7.0","AL4QXJSJQGT4H","img_art/ins/popularity/ins2Extreme.png","0","instructions","","","","","","","","","","","","","","","","","","","","","","","",""
"3735","","image-button-response_instructions","8","106041","0.0-8.0","AL4QXJSJQGT4H","img_art/ins/popularity/ins3KEEPpop.PNG","0","instructions","","","","","","","","","","","","","","","","","","","","","","","",""
"7527","","image-button-response_instructions","9","113569","0.0-9.0","AL4QXJSJQGT4H","img_art/ins/popularity/ins3ANamepop.PNG","0","instructions","","","","","","","","","","","","","","","","","","","","","","","",""
"3178","","image-button-response_instructions","10","116748","0.0-10.0","AL4QXJSJQGT4H","img_art/ins/popularity/ins3ARatingpop.png","0","instructions","","","","","","","","","","","","","","","","","","","","","","","",""
"21382","","image-button-response_instructions","11","138132","0.0-11.0","AL4QXJSJQGT4H","img_art/ins/popularity/ins3ATextpop.png","0","instructions","","","","","","","","","","","","","","","","","","","","","","","",""
"8203","","image-button-response_instructions","12","146338","0.0-12.0","AL4QXJSJQGT4H","img_art/ins/popularity/ins3ALikespop.png","0","instructions","","","","","","","","","","","","","","","","","","","","","","","",""
"10013","","image-button-response_instructions","13","156351","0.0-13.0","AL4QXJSJQGT4H","img_art/ins/popularity/ins3KEEPpop.PNG","0","instructions","","","","","","","","","","","","","","","","","","","","","","","",""
"8384","","image-button-response_instructions","14","164736","0.0-14.0","AL4QXJSJQGT4H","img_art/ins/popularity/ins3_5RED.png","0","instructions","","","","","","","","","","","","","","","","","","","","","","","",""
"3818","","image-button-response_instructions","15","168555","0.0-15.0","AL4QXJSJQGT4H","img_art/ins/popularity/ins3KEEPpop.PNG","0","instructions","","","","","","","","","","","","","","","","","","","","","","","",""
"13081","","image-button-response_instructions","16","181637","0.0-16.0","AL4QXJSJQGT4H","img_art/ins/popularity/ins4KEEPpop.PNG","0","instructions","","","","","","","","","","","","","","","","","","","","","","","",""
"3290","","image-button-response_instructions","17","184929","0.0-17.0","AL4QXJSJQGT4H","img_art/ins/popularity/ins5KEEPpop.PNG","0","instructions","","","","","","","","","","","","","","","","","","","","","","","",""
"1210","","image-button-response_instructions","18","186141","0.0-18.0","AL4QXJSJQGT4H","","0","instructions","","","","","","","","","","","","","","","","","","","","","","","",""
"4001","","survey-text","19","190179","0.0-19.0-0.0","AL4QXJSJQGT4H","","","","{""Q0"":""but""}","","","","","","","","","","","","","","","","","","","","","","",""
"15045","","survey-text","20","205226","0.0-20.0-0.0","AL4QXJSJQGT4H","","","","{""Q0"":""abstract, but bright and cheerful""}","","","","","","","","","","","","","","","","","","","","","","",""
"3550","","image-slider-response","21","208780","0.0-21.0","AL4QXJSJQGT4H","","","","","36","","","","","","","","","","","","","","","","","","","","","",""
"null","","image-button-response","22","213782","0.0-22.0","AL4QXJSJQGT4H","img_art/ins/1.jpg","null","","","","","","","","","","","","","","","","","","","","","","","","",""
"1544","","image-button-response","23","215327","0.0-23.0","AL4QXJSJQGT4H","img_art/ins/1.jpg","0","","","","","","","","","","","","","","","","","","","","","","","","",""
"1469","","image-button-response","24","216799","0.0-24.0-0.0","AL4QXJSJQGT4H","img_art/ins/1.jpg","4","","","","","","","","","","","","","","","","","","","","","","","","",""
"969","","image-button-response","25","217770","0.0-25.0-0.0","AL4QXJSJQGT4H","img_art/ins/1.jpg","5","","","","","","","","","","","","","","","","","","","","","","","","",""
"null","","html-keyboard-response","26","219274","0.0-26.0","AL4QXJSJQGT4H","<p style=""font-size: 48px;"">+</p>","","","","","null","allTrialResponses","1500","1","-2","img_art/ins/1.jpg","36","abstract, but bright and cheerful","Allison,Ashley,Beth,Dora,Erika,Jen","looks like a lot of things going on in the mist,20,20,20","I just don't get why these type of art would be popular,-32,40,20","This color reminds me of poo,-46,60,20","looks like what my niece in 3rd grade did this afternoon,-50,80,20","I like the sophisticated brushwork,40,100,20","It reminds me of a candy land dream I had,36,120,20","Allison","looks like a lot of things going on in the mist,20,20,20","Erika","I like the sophisticated brushwork,40,100,20","Jen","It reminds me of a candy land dream I had,36,120,20","0"
"44162","","survey-text","27","263441","0.0-27.0-0.0","AL4QXJSJQGT4H","","","","{""Q0"":""seems angry and gives me negative energy""}","","","","","","","","","","","","","","","","","","","","","","",""
"2805","","image-slider-response","28","266249","0.0-28.0","AL4QXJSJQGT4H","","","","","-23","","","","","","","","","","","","","","","","","","","","","",""
"null","","image-button-response","29","271260","0.0-29.0","AL4QXJSJQGT4H","img_art/ins/2.jpg","null","","","","","","","","","","","","","","","","","","","","","","","","",""
"3059","","image-button-response","30","274320","0.0-30.0","AL4QXJSJQGT4H","img_art/ins/2.jpg","5","","","","","","","","","","","","","","","","","","","","","","","","",""
"2608","","image-button-response","31","276930","0.0-31.0-0.0","AL4QXJSJQGT4H","img_art/ins/2.jpg","0","","","","","","","","","","","","","","","","","","","","","","","","",""
"5178","","image-button-response","32","282110","0.0-32.0-0.0","AL4QXJSJQGT4H","img_art/ins/2.jpg","1","","","","","","","","","","","","","","","","","","","","","","","","",""
"null","","html-keyboard-response","33","282619","0.0-33.0","AL4QXJSJQGT4H","<p style=""font-size: 48px;"">+</p>","","","","","null","allTrialResponses","500","1","-1","img_art/ins/2.jpg","-23","seems angry and gives me negative energy","Allison,Kara,Katie,Jenna,Erika,Jen","I don't have strong feelings about this,10,20,20","I like the blocks of color arrangements,30,160,20","too much color!,-28,180,20","One of my pet peevs,-48,140,20","I would never be able to compose a sophisticated pallete like this,48,100,20","It reminds me of a fireplace,36,120,20","Jen","It reminds me of a fireplace,36,120,20","Allison","I don't have strong feelings about this,10,20,20","Kara","I like the blocks of color arrangements,30,160,20","0"
"16731","","survey-text","34","299354","0.0-34.0-0.0","AL4QXJSJQGT4H","","","","{""Q0"":""this is so calming and beautiful. i love the colors.""}","","","","","","","","","","","","","","","","","","","","","","",""
"3582","","image-slider-response","35","302937","0.0-35.0","AL4QXJSJQGT4H","","","","","50","","","","","","","","","","","","","","","","","","","","","",""
"null","","image-button-response","36","307945","0.0-36.0","AL4QXJSJQGT4H","img_art/ins/3.jpg","null","","","","","","","","","","","","","","","","","","","","","","","","",""
"31803","","image-button-response","37","339749","0.0-37.0","AL4QXJSJQGT4H","img_art/ins/3.jpg","1","","","","","","","","","","","","","","","","","","","","","","","","",""
"2185","","image-button-response","38","341935","0.0-38.0-0.0","AL4QXJSJQGT4H","img_art/ins/3.jpg","5","","","","","","","","","","","","","","","","","","","","","","","","",""
"1008","","image-button-response","39","342945","0.0-39.0-0.0","AL4QXJSJQGT4H","img_art/ins/3.jpg","4","","","","","","","","","","","","","","","","","","","","","","","","",""
"null","","html-keyboard-response","40","344448","0.0-40.0","AL4QXJSJQGT4H","<p style=""font-size: 48px;"">+</p>","","","","","null","allTrialResponses","1500","1","0","img_art/ins/3.jpg","50","this is so calming and beautiful. i love the colors.","Allison,Kara,Rose,Leslie,Mary,Jen","enjoy the different shades of blue,22,20,20","calming blue is very nice,36,160,20","My daily routine, it's depressing,-20,240,20","It's an alright work,15,200,20","I like the overlapping of brushes,41,220,20","I can feel a rainy day from this painting,18,120,20","Kara","calming blue is very nice,36,160,20","Jen","I can feel a rainy day from this painting,18,120,20","Mary","I like the overlapping of brushes,41,220,20","0"
"4064","","image-button-response_instructions","41","348515","0.0-41.0","AL4QXJSJQGT4H","","0","instructions","","","","","","","","","","","","","","","","","","","","","","","",""
"11220","","survey-likert","42","359740","0.0-42.0-0.0","AL4QXJSJQGT4H","","","","{""Q0"":"""",""Q1"":0,""Q2"":1}","","","","","","","","","","","","","","","","","","","","","","",""
"4728","","survey-text","43","364472","0.0-43.0-0.0","AL4QXJSJQGT4H","","","","{""Q0"":""rock""}","","","","","","","","","","","","","","","","","","","","","","",""
"52195","","survey-text","44","416668","0.0-44.0-0.0","AL4QXJSJQGT4H","","","","{""Q0"":""this is such a strange painting and the colors are not pleasant""}","","","","","","","","","","","","","","","","","","","","","","",""
"4662","","image-slider-response","45","421334","0.0-45.0","AL4QXJSJQGT4H","","","","","-44","","","","","","","","","","","","","","","","","","","","","",""
"4476","","image-button-response","46","426361","0.0-46.0","AL4QXJSJQGT4H","img_art/4.jpg","0","","","","","","","","","","","","","","","","","","","","","","","","",""
"2750","","image-button-response","47","429111","0.0-47.0","AL4QXJSJQGT4H","img_art/4.jpg","4","","","","","","","","","","","","","","","","","","","","","","","","",""
"1078","","image-button-response","48","430192","0.0-48.0-0.0","AL4QXJSJQGT4H","img_art/4.jpg","2","","","","","","","","","","","","","","","","","","","","","","","","",""
"4146","","image-button-response","49","434340","0.0-49.0-0.0","AL4QXJSJQGT4H","img_art/4.jpg","0","","","","","","","","","","","","","","","","","","","","","","","","",""
"null","","html-keyboard-response","50","435857","0.0-50.0","AL4QXJSJQGT4H","<p style=""font-size: 48px;"">+</p>","","","","","null","allTrialResponses","1500","1","1","img_art/4.jpg","-44","this is such a strange painting and the colors are not pleasant","Shannon,Anna,Sabrina,Diana,Mary,Paige","I think that this picture is too boring in terms of color and it looks ugly.,-41,220,20","It doesn't make me feel anything it just looks like a kid did it.,-30,300,20","Its just not giving the vibe i should be finding,-31,120,20","Odd but intriguing. I feel emotion from this. Like a woman bent over carrying these emotions on her back.,33,380,20","This looks like a child got into his diaper.,-46,180,20","the colors are calming,31,60,20","Mary","This looks like a child got into his diaper.,-46,180,20","Sabrina","Its just not giving the vibe i should be finding,-31,120,20","Shannon","I think that this picture is too boring in terms of color and it looks ugly.,-41,220,20","0"
"18546","","survey-text","51","454406","0.0-51.0-0.0","AL4QXJSJQGT4H","","","","{""Q0"":""this is interesting. i like the abstract speckled paint.""}","","","","","","","","","","","","","","","","","","","","","","",""
"3844","","image-slider-response","52","458253","0.0-52.0","AL4QXJSJQGT4H","","","","","34","","","","","","","","","","","","","","","","","","","","","",""
"3203","","image-button-response","53","463270","0.0-53.0","AL4QXJSJQGT4H","img_art/13.jpg","2","","","","","","","","","","","","","","","","","","","","","","","","",""
"1533","","image-button-response","54","464805","0.0-54.0","AL4QXJSJQGT4H","img_art/13.jpg","3","","","","","","","","","","","","","","","","","","","","","","","","",""
"759","","image-button-response","55","465567","0.0-55.0-0.0","AL4QXJSJQGT4H","img_art/13.jpg","5","","","","","","","","","","","","","","","","","","","","","","","","",""
"1858","","image-button-response","56","467427","0.0-56.0-0.0","AL4QXJSJQGT4H","img_art/13.jpg","2","","","","","","","","","","","","","","","","","","","","","","","","",""
"null","","html-keyboard-response","57","468440","0.0-57.0","AL4QXJSJQGT4H","<p style=""font-size: 48px;"">+</p>","","","","","null","allTrialResponses","1000","1","2","img_art/13.jpg","34","this is interesting. i like the abstract speckled paint.","Shannon,Kayla,Sabrina,Jamie,Mary,Monica","It looks like someone splattered a bunch of different colors to make a picture; I think its ugly.,-40,220,20","Pleasing, happy, rainy.,12,180,20","I love the edgy nature,50,120,20","Cool colors and looks like rain on a window,45,320,20","I do not care for the colors in this art. it doesnt go well at all.,-15,180,20","It's like any other splatter paint art piece, nothing special,1,360,20","Jamie","Cool colors and looks like rain on a window,45,320,20","Monica","It's like any other splatter paint art piece, nothing special,1,360,20","Sabrina","I love the edgy nature,50,120,20","0"
"17679","","survey-text","58","486123","0.0-58.0-0.0","AL4QXJSJQGT4H","","","","{""Q0"":""this is disjointed and seems like 2 artists worked on it""}","","","","","","","","","","","","","","","","","","","","","","",""
"3977","","image-slider-response","59","490103","0.0-59.0","AL4QXJSJQGT4H","","","","","-33","","","","","","","","","","","","","","","","","","","","","",""
"2947","","image-button-response","60","495116","0.0-60.0","AL4QXJSJQGT4H","img_art/27.jpg","1","","","","","","","","","","","","","","","","","","","","","","","","",""
"1159","","image-button-response","61","496276","0.0-61.0","AL4QXJSJQGT4H","img_art/27.jpg","3","","","","","","","","","","","","","","","","","","","","","","","","",""
"867","","image-button-response","62","497143","0.0-62.0-0.0","AL4QXJSJQGT4H","img_art/27.jpg","1","","","","","","","","","","","","","","","","","","","","","","","","",""
"994","","image-button-response","63","498139","0.0-63.0-0.0","AL4QXJSJQGT4H","img_art/27.jpg","0","","","","","","","","","","","","","","","","","","","","","","","","",""
"null","","html-keyboard-response","64","499152","0.0-64.0","AL4QXJSJQGT4H","<p style=""font-size: 48px;"">+</p>","","","","","null","allTrialResponses","1000","1","3","img_art/27.jpg","-33","this is disjointed and seems like 2 artists worked on it","Danielle,Lauren,Sabrina,Jamie,Gabriela,Monica","Looks a bit like a child's project with unsatisfying colors,-31,340,20","Not a fan of the green; gives off the impression that someone else drew on it.,-20,340,20","Love the representation of home,22,120,20","Don't like the mix of green with the warmer colors,-15,320,20","I like hoe it looks like a fall day in a city,45,140,20","It tries to remind me of the autumn season but it's grey and looks dirty,-5,360,20","Jamie","Don't like the mix of green with the warmer colors,-15,320,20","Lauren","Not a fan of the green; gives off the impression that someone else drew on it.,-20,340,20","Danielle","Looks a bit like a child's project with unsatisfying colors,-31,340,20","0"
"28761","","survey-text","65","527918","0.0-65.0-0.0","AL4QXJSJQGT4H","","","","{""Q0"":""there is so much to see in this piece, im very intrigued""}","","","","","","","","","","","","","","","","","","","","","","",""
"2919","","image-slider-response","66","530839","0.0-66.0","AL4QXJSJQGT4H","","","","","31","","","","","","","","","","","","","","","","","","","","","",""
"4527","","image-button-response","67","535851","0.0-67.0","AL4QXJSJQGT4H","img_art/19.jpg","3","","","","","","","","","","","","","","","","","","","","","","","","",""
"2397","","image-button-response","68","538250","0.0-68.0","AL4QXJSJQGT4H","img_art/19.jpg","3","","","","","","","","","","","","","","","","","","","","","","","","",""
"2389","","image-button-response","69","540640","0.0-69.0-0.0","AL4QXJSJQGT4H","img_art/19.jpg","4","","","","","","","","","","","","","","","","","","","","","","","","",""
"1533","","image-button-response","70","542175","0.0-70.0-0.0","AL4QXJSJQGT4H","img_art/19.jpg","2","","","","","","","","","","","","","","","","","","","","","","","","",""
"null","","html-keyboard-response","71","543685","0.0-71.0","AL4QXJSJQGT4H","<p style=""font-size: 48px;"">+</p>","","","","","null","allTrialResponses","1500","1","4","img_art/19.jpg","31","there is so much to see in this piece, im very intrigued","Danielle,Lauren,Kimberly,Jamie,Haley,Kelly","It looks like as if it were portraying a village that was polluted? I don't like the theme anyway,-21,340,20","The image doesn't really invoke any emotions strongly.,0,340,20","The blue makes it look like it has depth,11,260,20","Looks like a busy port,10,320,20","I like this as a whole, but the longer I look at it, the less it pleases me,-10,220,20","TOo much brown.,-24,220,20","Jamie","Looks like a busy port,10,320,20","Haley","I like this as a whole, but the longer I look at it, the less it pleases me,-10,220,20","Kimberly","The blue makes it look like it has depth,11,260,20","0"
"15844","","survey-text","72","559534","0.0-72.0-0.0","AL4QXJSJQGT4H","","","","{""Q0"":""this is bland and looks like a picture of the ground""}","","","","","","","","","","","","","","","","","","","","","","",""
"3459","","image-slider-response","73","562994","0.0-73.0","AL4QXJSJQGT4H","","","","","-17","","","","","","","","","","","","","","","","","","","","","",""
"2176","","image-button-response","74","567997","0.0-74.0","AL4QXJSJQGT4H","img_art/7.jpg","0","","","","","","","","","","","","","","","","","","","","","","","","",""
"946","","image-button-response","75","568945","0.0-75.0","AL4QXJSJQGT4H","img_art/7.jpg","0","","","","","","","","","","","","","","","","","","","","","","","","",""
"960","","image-button-response","76","569907","0.0-76.0-0.0","AL4QXJSJQGT4H","img_art/7.jpg","1","","","","","","","","","","","","","","","","","","","","","","","","",""
"870","","image-button-response","77","570780","0.0-77.0-0.0","AL4QXJSJQGT4H","img_art/7.jpg","2","","","","","","","","","","","","","","","","","","","","","","","","",""
"null","","html-keyboard-response","78","571792","0.0-78.0","AL4QXJSJQGT4H","<p style=""font-size: 48px;"">+</p>","","","","","null","allTrialResponses","1000","1","5","img_art/7.jpg","-17","this is bland and looks like a picture of the ground","Grace,Elizabeth,Kimberly,Jamie,Haley,Erica","Makes me itch - looks like a closeup of an ant colony or something.,-1,180,20","The picture is just random,-8,20,20","Looks like a bad picture of a beach,-21,260,20","Looks like a battle raging on,20,320,20","Confusion, mild aversion,-36,220,20","No not cause many emotions,1,80,20","Grace","Makes me itch - looks like a closeup of an ant colony or something.,-1,180,20","Elizabeth","The picture is just random,-8,20,20","Kimberly","Looks like a bad picture of a beach,-21,260,20","0"
"3749","","survey-text","79","575552","0.0-79.0-0.0","AL4QXJSJQGT4H","","","","{""Q0"":""sky""}","","","","","","","","","","","","","","","","","","","","","","",""
"27848","","survey-text","80","603401","0.0-80.0-0.0","AL4QXJSJQGT4H","","","","{""Q0"":""this is beautiful. the colors and line work are so interesting""}","","","","","","","","","","","","","","","","","","","","","","",""
"3483","","image-slider-response","81","606887","0.0-81.0","AL4QXJSJQGT4H","","","","","48","","","","","","","","","","","","","","","","","","","","","",""
"1801","","image-button-response","82","611898","0.0-82.0","AL4QXJSJQGT4H","img_art/17.jpg","1","","","","","","","","","","","","","","","","","","","","","","","","",""
"746","","image-button-response","83","612646","0.0-83.0","AL4QXJSJQGT4H","img_art/17.jpg","1","","","","","","","","","","","","","","","","","","","","","","","","",""
"1277","","image-button-response","84","613924","0.0-84.0-0.0","AL4QXJSJQGT4H","img_art/17.jpg","3","","","","","","","","","","","","","","","","","","","","","","","","",""
"943","","image-button-response","85","614869","0.0-85.0-0.0","AL4QXJSJQGT4H","img_art/17.jpg","5","","","","","","","","","","","","","","","","","","","","","","","","",""
"null","","html-keyboard-response","86","616386","0.0-86.0","AL4QXJSJQGT4H","<p style=""font-size: 48px;"">+</p>","","","","","null","allTrialResponses","1500","1","6","img_art/17.jpg","48","this is beautiful. the colors and line work are so interesting","Grace,Elizabeth,Kimberly,Madeline,Kaitlyn,Autumn","Reminds me of winters in Minnesota.,48,180,20","Has a unique vibe to it,50,20,20","I like the trees, but the doors less so,19,260,20","So expressive and wonderful wow!,17,40,20","Very beautiful,19,80,20","Looks awesome .,33,340,20","Elizabeth","Has a unique vibe to it,50,20,20","Madeline","So expressive and wonderful wow!,17,40,20","Autumn","Looks awesome .,33,340,20","0"
"16034","","survey-text","87","632425","0.0-87.0-0.0","AL4QXJSJQGT4H","","","","{""Q0"":""this looks like a child made it""}","","","","","","","","","","","","","","","","","","","","","","",""
"3600","","image-slider-response","88","636026","0.0-88.0","AL4QXJSJQGT4H","","","","","-40","","","","","","","","","","","","","","","","","","","","","",""
"3595","","image-button-response","89","641042","0.0-89.0","AL4QXJSJQGT4H","img_art/14.jpg","0","","","","","","","","","","","","","","","","","","","","","","","","",""
"1334","","image-button-response","90","642378","0.0-90.0","AL4QXJSJQGT4H","img_art/14.jpg","0","","","","","","","","","","","","","","","","","","","","","","","","",""
"1256","","image-button-response","91","643637","0.0-91.0-0.0","AL4QXJSJQGT4H","img_art/14.jpg","5","","","","","","","","","","","","","","","","","","","","","","","","",""
"3841","","image-button-response","92","647480","0.0-92.0-0.0","AL4QXJSJQGT4H","img_art/14.jpg","3","","","","","","","","","","","","","","","","","","","","","","","","",""
"null","","html-keyboard-response","93","647991","0.0-93.0","AL4QXJSJQGT4H","<p style=""font-size: 48px;"">+</p>","","","","","null","allTrialResponses","500","1","7","img_art/14.jpg","-40","this looks like a child made it","Miranda,Elizabeth,Abigail,Madeline,Courtney,Autumn","This just looks like a kids watercolor painting.,-30,320,20","Love the abstractness of this painting,39,20,20","Reminds me of art class,22,20,20","It looks nice colorwise but detail is lacking,18,40,20","The pirates ship is sinking.,27,280,20","It's too basic.,23,340,20","Miranda","This just looks like a kids watercolor painting.,-30,320,20","Autumn","It's too basic.,23,340,20","Madeline","It looks nice colorwise but detail is lacking,18,40,20","0"
"35473","","survey-text","94","683471","0.0-94.0-0.0","AL4QXJSJQGT4H","","","","{""Q0"":""a very unique style of a car crash""}","","","","","","","","","","","","","","","","","","","","","","",""
"3435","","image-slider-response","95","686909","0.0-95.0","AL4QXJSJQGT4H","","","","","14","","","","","","","","","","","","","","","","","","","","","",""
"null","","image-button-response","96","691917","0.0-96.0","AL4QXJSJQGT4H","img_art/20.jpg","null","","","","","","","","","","","","","","","","","","","","","","","","",""
"814","","image-button-response","97","692731","0.0-97.0","AL4QXJSJQGT4H","img_art/20.jpg","0","","","","","","","","","","","","","","","","","","","","","","","","",""
"1121","","image-button-response","98","693853","0.0-98.0-0.0","AL4QXJSJQGT4H","img_art/20.jpg","4","","","","","","","","","","","","","","","","","","","","","","","","",""
"1091","","image-button-response","99","694946","0.0-99.0-0.0","AL4QXJSJQGT4H","img_art/20.jpg","3","","","","","","","","","","","","","","","","","","","","","","","","",""
"null","","html-keyboard-response","100","696454","0.0-100.0","AL4QXJSJQGT4H","<p style=""font-size: 48px;"">+</p>","","","","","null","allTrialResponses","1500","1","8","img_art/20.jpg","14","a very unique style of a car crash","Miranda,Bailey,Melissa,Madeline,Chelsea,Autumn","A painting within a painting, the inner painting looks like a car crash with a semi truck.,21,320,20","A bit hectic, but it does have a bit of coolness to it,6,360,20","feels underdeveloped,-11,240,20","Looks somewhat dark and emotional,-10,40,20","It is abstract but it looks neat.,15,180,20","It's ok. Very abstract.,18,340,20","Miranda","A painting within a painting, the inner painting looks like a car crash with a semi truck.,21,320,20","Chelsea","It is abstract but it looks neat.,15,180,20","Madeline","Looks somewhat dark and emotional,-10,40,20","0"
"19593","","survey-text","101","716051","0.0-101.0-0.0","AL4QXJSJQGT4H","","","","{""Q0"":""this looks like an ancient style of art. very unique.""}","","","","","","","","","","","","","","","","","","","","","","",""
"4308","","image-slider-response","102","720362","0.0-102.0","AL4QXJSJQGT4H","","","","","5","","","","","","","","","","","","","","","","","","","","","",""
"4686","","image-button-response","103","725365","0.0-103.0","AL4QXJSJQGT4H","img_art/25.jpg","0","","","","","","","","","","","","","","","","","","","","","","","","",""
"2841","","image-button-response","104","728208","0.0-104.0","AL4QXJSJQGT4H","img_art/25.jpg","0","","","","","","","","","","","","","","","","","","","","","","","","",""
"1325","","image-button-response","105","729534","0.0-105.0-0.0","AL4QXJSJQGT4H","img_art/25.jpg","5","","","","","","","","","","","","","","","","","","","","","","","","",""
"2520","","image-button-response","106","732057","0.0-106.0-0.0","AL4QXJSJQGT4H","img_art/25.jpg","1","","","","","","","","","","","","","","","","","","","","","","","","",""
"null","","html-keyboard-response","107","732560","0.0-107.0","AL4QXJSJQGT4H","<p style=""font-size: 48px;"">+</p>","","","","","null","allTrialResponses","500","1","9","img_art/25.jpg","5","this looks like an ancient style of art. very unique.","Miranda,Andrea,Amy,Madeline,Chelsea,Destiny","This looks cool but I don't really care for it. Some sort or religious figure?,16,320,20","Looks like Burning Man, dont care for the colors.,-5,240,20","The limited palette make this figure mysterious and interpret-able.,20,220,20","It looks a bit strange to me, neck too long,-19,40,20","The color and image are unsettling.,-29,180,20","creeeeeppyyyyyyy but mad cool,-26,360,20","Miranda","This looks cool but I don't really care for it. Some sort or religious figure?,16,320,20","Destiny","creeeeeppyyyyyyy but mad cool,-26,360,20","Andrea","Looks like Burning Man, dont care for the colors.,-5,240,20","0"
"12927","","survey-text","108","745492","0.0-108.0-0.0","AL4QXJSJQGT4H","","","","{""Q0"":""this is very bright and eye catching""}","","","","","","","","","","","","","","","","","","","","","","",""
"2669","","image-slider-response","109","748164","0.0-109.0","AL4QXJSJQGT4H","","","","","28","","","","","","","","","","","","","","","","","","","","","",""
"null","","image-button-response","110","753179","0.0-110.0","AL4QXJSJQGT4H","img_art/23.jpg","null","","","","","","","","","","","","","","","","","","","","","","","","",""
"720","","image-button-response","111","753900","0.0-111.0","AL4QXJSJQGT4H","img_art/23.jpg","0","","","","","","","","","","","","","","","","","","","","","","","","",""
"1919","","image-button-response","112","755822","0.0-112.0-0.0","AL4QXJSJQGT4H","img_art/23.jpg","3","","","","","","","","","","","","","","","","","","","","","","","","",""
"2024","","image-button-response","113","757848","0.0-113.0-0.0","AL4QXJSJQGT4H","img_art/23.jpg","2","","","","","","","","","","","","","","","","","","","","","","","","",""
"null","","html-keyboard-response","114","758363","0.0-114.0","AL4QXJSJQGT4H","<p style=""font-size: 48px;"">+</p>","","","","","null","allTrialResponses","500","1","10","img_art/23.jpg","28","this is very bright and eye catching","Miranda,Andrea,Michelle,Ashley,Madison,Destiny","It's very colorful and different, the white looks like people dancing,26,320,20","I see souls in torment and that makes me feel uneasy.,-21,240,20","This is nice, the colorful background is fun and the white looks like dancing figures,5,280,20","A line dance, it's really strinkingly beautiful.,50,320,20","Looks celebratory and joyful! However, the photograph does not do the original work's colors justice.,27,60,20","This looks like the cover art for a scene band,-29,360,20","Miranda","It's very colorful and different, the white looks like people dancing,26,320,20","Ashley","A line dance, it's really strinkingly beautiful.,50,320,20","Michelle","This is nice, the colorful background is fun and the white looks like dancing figures,5,280,20","0"
"3313","","survey-text","115","761689","0.0-115.0-0.0","AL4QXJSJQGT4H","","","","{""Q0"":""our""}","","","","","","","","","","","","","","","","","","","","","","",""
"20583","","survey-text","116","782274","0.0-116.0-0.0","AL4QXJSJQGT4H","","","","{""Q0"":""the fading colors is an interesting choice but i dislike the block style""}","","","","","","","","","","","","","","","","","","","","","","",""
"2604","","image-slider-response","117","784879","0.0-117.0","AL4QXJSJQGT4H","","","","","-9","","","","","","","","","","","","","","","","","","","","","",""
"null","","image-button-response","118","789891","0.0-118.0","AL4QXJSJQGT4H","img_art/12.jpg","null","","","","","","","","","","","","","","","","","","","","","","","","",""
"2584","","image-button-response","119","792475","0.0-119.0","AL4QXJSJQGT4H","img_art/12.jpg","5","","","","","","","","","","","","","","","","","","","","","","","","",""
"1211","","image-button-response","120","793688","0.0-120.0-0.0","AL4QXJSJQGT4H","img_art/12.jpg","4","","","","","","","","","","","","","","","","","","","","","","","","",""
"1200","","image-button-response","121","794889","0.0-121.0-0.0","AL4QXJSJQGT4H","img_art/12.jpg","1","","","","","","","","","","","","","","","","","","","","","","","","",""
"null","","html-keyboard-response","122","795405","0.0-122.0","AL4QXJSJQGT4H","<p style=""font-size: 48px;"">+</p>","","","","","null","allTrialResponses","500","1","11","img_art/12.jpg","-9","the fading colors is an interesting choice but i dislike the block style","Miranda,Katie,Michelle,Ashley,Michaela,Christina","This is like going to a really old mcdoanlds in a tiny town and it's never been renovated so it's breaking down,-31,320,20","Squares are rigid. I'm ambivalent.,1,160,20","eww hate everything about this, looks like it belongs in a dentist's office,-14,280,20","It's boxy, cubist immpressionism? Very ncie.,32,320,20","It looks like old lady upholstery,12,260,20","way too 90s/80s for me,-9,240,20","Christina","way too 90s/80s for me,-9,240,20","Michaela","It looks like old lady upholstery,12,260,20","Katie","Squares are rigid. I'm ambivalent.,1,160,20","0"
"21607","","survey-text","123","817015","0.0-123.0-0.0","AL4QXJSJQGT4H","","","","{""Q0"":""looks very juvenile and a bit creepy""}","","","","","","","","","","","","","","","","","","","","","","",""
"4181","","image-slider-response","124","821197","0.0-124.0","AL4QXJSJQGT4H","","","","","-27","","","","","","","","","","","","","","","","","","","","","",""
"null","","image-button-response","125","826210","0.0-125.0","AL4QXJSJQGT4H","img_art/3.jpg","null","","","","","","","","","","","","","","","","","","","","","","","","",""
"827","","image-button-response","126","827038","0.0-126.0","AL4QXJSJQGT4H","img_art/3.jpg","0","","","","","","","","","","","","","","","","","","","","","","","","",""
"1079","","image-button-response","127","828118","0.0-127.0-0.0","AL4QXJSJQGT4H","img_art/3.jpg","4","","","","","","","","","","","","","","","","","","","","","","","","",""
"1396","","image-button-response","128","829515","0.0-128.0-0.0","AL4QXJSJQGT4H","img_art/3.jpg","1","","","","","","","","","","","","","","","","","","","","","","","","",""
"null","","html-keyboard-response","129","830524","0.0-129.0","AL4QXJSJQGT4H","<p style=""font-size: 48px;"">+</p>","","","","","null","allTrialResponses","1000","1","12","img_art/3.jpg","-27","looks very juvenile and a bit creepy","Kelsey,Katie,Claire,Laura,Michaela,Christina","just scribbles, not pleasing,-30,240,20","Messy. Looks like a children's drawing being passed off as expensive art. Too much red.,-50,160,20","looks like a kid scribbled with crayon,-35,260,20","wild scribbling, freedom, expression,40,320,20","It looks like someone took a red sharpie and just scribbled angrily,-20,260,20","looks more classic but i'm not a fan of the colors,7,240,20","Kelsey","just scribbles, not pleasing,-30,240,20","Michaela","It looks like someone took a red sharpie and just scribbled angrily,-20,260,20","Katie","Messy. Looks like a children's drawing being passed off as expensive art. Too much red.,-50,160,20","0"
"35109","","survey-text","130","865638","0.0-130.0-0.0","AL4QXJSJQGT4H","","","","{""Q0"":""looks like a small stream going down a mountain with flowers""}","","","","","","","","","","","","","","","","","","","","","","",""
"2310","","image-slider-response","131","867951","0.0-131.0","AL4QXJSJQGT4H","","","","","28","","","","","","","","","","","","","","","","","","","","","",""
"null","","image-button-response","132","872965","0.0-132.0","AL4QXJSJQGT4H","img_art/24.jpg","null","","","","","","","","","","","","","","","","","","","","","","","","",""
"392","","image-button-response","133","873357","0.0-133.0","AL4QXJSJQGT4H","img_art/24.jpg","1","","","","","","","","","","","","","","","","","","","","","","","","",""
"1348","","image-button-response","134","874707","0.0-134.0-0.0","AL4QXJSJQGT4H","img_art/24.jpg","4","","","","","","","","","","","","","","","","","","","","","","","","",""
"934","","image-button-response","135","875644","0.0-135.0-0.0","AL4QXJSJQGT4H","img_art/24.jpg","3","","","","","","","","","","","","","","","","","","","","","","","","",""
"null","","html-keyboard-response","136","876655","0.0-136.0","AL4QXJSJQGT4H","<p style=""font-size: 48px;"">+</p>","","","","","null","allTrialResponses","1000","1","13","img_art/24.jpg","28","looks like a small stream going down a mountain with flowers","Kelsey,Katie,Angelica,Kristen,Michaela,Amber","this one is just a bit too harsh,-13,240,20","I see a waterfall, which is relaxing and peaceful!  I like the blue coloring,30,160,20","This looks ugly and simple, as if done by a young person.,-2,280,20","calm, nature, safe, happy place,,50,280,20","Very pretty and soft,37,260,20","peaceful and calm yet joyous.,50,200,20","Katie","I see a waterfall, which is relaxing and peaceful!  I like the blue coloring,30,160,20","Michaela","Very pretty and soft,37,260,20","Kristen","calm, nature, safe, happy place,,50,280,20","0"
"14203","","survey-text","137","890862","0.0-137.0-0.0","AL4QXJSJQGT4H","","","","{""Q0"":""very random. clashing colors.""}","","","","","","","","","","","","","","","","","","","","","","",""
"2641","","image-slider-response","138","893505","0.0-138.0","AL4QXJSJQGT4H","","","","","-35","","","","","","","","","","","","","","","","","","","","","",""
"null","","image-button-response","139","898513","0.0-139.0","AL4QXJSJQGT4H","img_art/5.jpg","null","","","","","","","","","","","","","","","","","","","","","","","","",""
"1797","","image-button-response","140","900311","0.0-140.0","AL4QXJSJQGT4H","img_art/5.jpg","0","","","","","","","","","","","","","","","","","","","","","","","","",""
"734","","image-button-response","141","901046","0.0-141.0-0.0","AL4QXJSJQGT4H","img_art/5.jpg","1","","","","","","","","","","","","","","","","","","","","","","","","",""
"795","","image-button-response","142","901845","0.0-142.0-0.0","AL4QXJSJQGT4H","img_art/5.jpg","2","","","","","","","","","","","","","","","","","","","","","","","","",""
"null","","html-keyboard-response","143","903356","0.0-143.0","AL4QXJSJQGT4H","<p style=""font-size: 48px;"">+</p>","","","","","null","allTrialResponses","1500","1","14","img_art/5.jpg","-35","very random. clashing colors.","Brooke,Katie,Jessica,Kristen,Michaela,Rebecca","No. What even is this? A mop?,-35,60,20","I don't get it at all. But, maybe it is the top portion of a piece of fruit.,-50,160,20","Don't really know the point of this one.,-11,400,20","sharp, painful yet playful,-5,280,20","Pretty simple, I'm not sure what it's supposed to mean,14,260,20","sorry not my style,-37,100,20","Brooke","No. What even is this? A mop?,-35,60,20","Katie","I don't get it at all. But, maybe it is the top portion of a piece of fruit.,-50,160,20","Jessica","Don't really know the point of this one.,-11,400,20","0"
"18157","","survey-text","144","921519","0.0-144.0-0.0","AL4QXJSJQGT4H","","","","{""Q0"":""something melancholy about this. feels like a stormy sea.""}","","","","","","","","","","","","","","","","","","","","","","",""
"3266","","image-slider-response","145","924786","0.0-145.0","AL4QXJSJQGT4H","","","","","12","","","","","","","","","","","","","","","","","","","","","",""
"null","","image-button-response","146","929800","0.0-146.0","AL4QXJSJQGT4H","img_art/10.jpg","null","","","","","","","","","","","","","","","","","","","","","","","","",""
"1608","","image-button-response","147","931409","0.0-147.0","AL4QXJSJQGT4H","img_art/10.jpg","2","","","","","","","","","","","","","","","","","","","","","","","","",""
"4618","","image-button-response","148","936029","0.0-148.0-0.0","AL4QXJSJQGT4H","img_art/10.jpg","3","","","","","","","","","","","","","","","","","","","","","","","","",""
"1377","","image-button-response","149","937410","0.0-149.0-0.0","AL4QXJSJQGT4H","img_art/10.jpg","5","","","","","","","","","","","","","","","","","","","","","","","","",""
"null","","html-keyboard-response","150","937924","0.0-150.0","AL4QXJSJQGT4H","<p style=""font-size: 48px;"">+</p>","","","","","null","allTrialResponses","500","1","15","img_art/10.jpg","12","something melancholy about this. feels like a stormy sea.","Brooke,Katie,Jessica,Cynthia,Alexandria,Jennifer","artistic cello piece?,30,60,20","Dark and weird. Unidentifiable shape. I can't tell what it is, so I don't like it.,-50,160,20","I feel like this has a cool concept behind it.,11,400,20","cultural with a symphony,40,320,20","it reminds me of a musical instrument,19,80,20","I am neutral towards the artwork,1,380,20","Jessica","I feel like this has a cool concept behind it.,11,400,20","Cynthia","cultural with a symphony,40,320,20","Jennifer","I am neutral towards the artwork,1,380,20","0"
"3906","","survey-text","151","941839","0.0-151.0-0.0","AL4QXJSJQGT4H","","","","{""Q0"":""course""}","","","","","","","","","","","","","","","","","","","","","","",""
"16785","","survey-text","152","958625","0.0-152.0-0.0","AL4QXJSJQGT4H","","","","{""Q0"":""lots of colors but they dont work well together and look muddy""}","","","","","","","","","","","","","","","","","","","","","","",""
"2389","","image-slider-response","153","961017","0.0-153.0","AL4QXJSJQGT4H","","","","","-24","","","","","","","","","","","","","","","","","","","","","",""
"null","","image-button-response","154","966025","0.0-154.0","AL4QXJSJQGT4H","img_art/21.jpg","null","","","","","","","","","","","","","","","","","","","","","","","","",""
"1403","","image-button-response","155","967430","0.0-155.0","AL4QXJSJQGT4H","img_art/21.jpg","5","","","","","","","","","","","","","","","","","","","","","","","","",""
"1828","","image-button-response","156","969259","0.0-156.0-0.0","AL4QXJSJQGT4H","img_art/21.jpg","0","","","","","","","","","","","","","","","","","","","","","","","","",""
"1032","","image-button-response","157","970292","0.0-157.0-0.0","AL4QXJSJQGT4H","img_art/21.jpg","4","","","","","","","","","","","","","","","","","","","","","","","","",""
"null","","html-keyboard-response","158","971794","0.0-158.0","AL4QXJSJQGT4H","<p style=""font-size: 48px;"">+</p>","","","","","null","allTrialResponses","1500","1","16","img_art/21.jpg","-24","lots of colors but they dont work well together and look muddy","Emily,Margaret,Jessica,Cynthia,Kathryn,Jennifer","What's the point?,-30,40,20","i like the colors and the blending,17,100,20","I like how the colors blend together like a beautiful sunset.,25,400,20","mythical between good and evil,16,320,20","This feels chaotic, like a battle or a storm.,-20,140,20","Bland, this painting is my least favorite,-20,380,20","Jennifer","Bland, this painting is my least favorite,-20,380,20","Emily","What's the point?,-30,40,20","Kathryn","This feels chaotic, like a battle or a storm.,-20,140,20","0"
"24619","","survey-text","159","996419","0.0-159.0-0.0","AL4QXJSJQGT4H","","","","{""Q0"":""i see a man on a horse but there is something eerie to this piece""}","","","","","","","","","","","","","","","","","","","","","","",""
"2383","","image-slider-response","160","998804","0.0-160.0","AL4QXJSJQGT4H","","","","","10","","","","","","","","","","","","","","","","","","","","","",""
"null","","image-button-response","161","1003806","0.0-161.0","AL4QXJSJQGT4H","img_art/18.jpg","null","","","","","","","","","","","","","","","","","","","","","","","","",""
"538","","image-button-response","162","1004344","0.0-162.0","AL4QXJSJQGT4H","img_art/18.jpg","1","","","","","","","","","","","","","","","","","","","","","","","","",""
"2087","","image-button-response","163","1006433","0.0-163.0-0.0","AL4QXJSJQGT4H","img_art/18.jpg","4","","","","","","","","","","","","","","","","","","","","","","","","",""
"2194","","image-button-response","164","1008630","0.0-164.0-0.0","AL4QXJSJQGT4H","img_art/18.jpg","2","","","","","","","","","","","","","","","","","","","","","","","","",""
"null","","html-keyboard-response","165","1009133","0.0-165.0","AL4QXJSJQGT4H","<p style=""font-size: 48px;"">+</p>","","","","","null","allTrialResponses","500","1","17","img_art/18.jpg","10","i see a man on a horse but there is something eerie to this piece","Emily,Kylie,Taylor,Tiffany,Kathryn,Jennifer","Not my style but I can see some serious skill went int it.,21,40,20","Kind of weird in a confusing way,10,300,20","Another ominous painting,-10,340,20","I'm mildly disgusted by the colors, and can't piece together the story the figures are trying to tell.,-10,360,20","Like riding into battle. A sense of confidence, but also trepidation for what's coming. Could be a personification of death.,-10,140,20","I have no strong feelings about this image,1,380,20","Kylie","Kind of weird in a confusing way,10,300,20","Kathryn","Like riding into battle. A sense of confidence, but also trepidation for what's coming. Could be a personification of death.,-10,140,20","Taylor","Another ominous painting,-10,340,20","0"
"27583","","survey-text","166","1036721","0.0-166.0-0.0","AL4QXJSJQGT4H","","","","{""Q0"":""seems like a tree with a townhouse? colors are muted and bland.""}","","","","","","","","","","","","","","","","","","","","","","",""
"3996","","image-slider-response","167","1040720","0.0-167.0","AL4QXJSJQGT4H","","","","","-16","","","","","","","","","","","","","","","","","","","","","",""
"null","","image-button-response","168","1045724","0.0-168.0","AL4QXJSJQGT4H","img_art/26.jpg","null","","","","","","","","","","","","","","","","","","","","","","","","",""
"1091","","image-button-response","169","1046815","0.0-169.0","AL4QXJSJQGT4H","img_art/26.jpg","5","","","","","","","","","","","","","","","","","","","","","","","","",""
"2039","","image-button-response","170","1048856","0.0-170.0-0.0","AL4QXJSJQGT4H","img_art/26.jpg","4","","","","","","","","","","","","","","","","","","","","","","","","",""
"2065","","image-button-response","171","1050923","0.0-171.0-0.0","AL4QXJSJQGT4H","img_art/26.jpg","3","","","","","","","","","","","","","","","","","","","","","","","","",""
"null","","html-keyboard-response","172","1051439","0.0-172.0","AL4QXJSJQGT4H","<p style=""font-size: 48px;"">+</p>","","","","","null","allTrialResponses","500","1","18","img_art/26.jpg","-16","seems like a tree with a townhouse? colors are muted and bland.","Rachel,Kylie,Taylor,Jasmine,Kathryn,Gabrielle","Pretty trees and bushes around fancy brown stones. I like the soft nature.,20,80,20","Picturesque little town,45,300,20","Makes me want to walk down a cool street,20,340,20","This seems like a quiet painting,11,340,20","This piece feels pretty chill like it's just a normal day in the city.,10,140,20","subtle use of colors, city street view?,8,160,20","Gabrielle","subtle use of colors, city street view?,8,160,20","Kathryn","This piece feels pretty chill like it's just a normal day in the city.,10,140,20","Jasmine","This seems like a quiet painting,11,340,20","0"
"14530","","survey-text","173","1065974","0.0-173.0-0.0","AL4QXJSJQGT4H","","","","{""Q0"":""a bird standing on a beach. a lot of orange.""}","","","","","","","","","","","","","","","","","","","","","","",""
"2675","","image-slider-response","174","1068652","0.0-174.0","AL4QXJSJQGT4H","","","","","-4","","","","","","","","","","","","","","","","","","","","","",""
"null","","image-button-response","175","1073657","0.0-175.0","AL4QXJSJQGT4H","img_art/6.jpg","null","","","","","","","","","","","","","","","","","","","","","","","","",""
"726","","image-button-response","176","1074384","0.0-176.0","AL4QXJSJQGT4H","img_art/6.jpg","5","","","","","","","","","","","","","","","","","","","","","","","","",""
"1333","","image-button-response","177","1075719","0.0-177.0-0.0","AL4QXJSJQGT4H","img_art/6.jpg","3","","","","","","","","","","","","","","","","","","","","","","","","",""
"1748","","image-button-response","178","1077470","0.0-178.0-0.0","AL4QXJSJQGT4H","img_art/6.jpg","1","","","","","","","","","","","","","","","","","","","","","","","","",""
"null","","html-keyboard-response","179","1078481","0.0-179.0","AL4QXJSJQGT4H","<p style=""font-size: 48px;"">+</p>","","","","","null","allTrialResponses","1000","1","19","img_art/6.jpg","-4","a bird standing on a beach. a lot of orange.","Mackenzie,Erika,Mikayla,Jasmine,Kathryn,Gabrielle","I enjoy the color contrast.,20,20,20","Lonesome in nature,13,100,20","Not very exciting.,-34,300,20","Simple and clean,11,340,20","This piece feels hopeful, like an oasis in the desert.,20,140,20","simplistic but reminds me of a crow in a field,-10,160,20","Gabrielle","simplistic but reminds me of a crow in a field,-10,160,20","Jasmine","Simple and clean,11,340,20","Erika","Lonesome in nature,13,100,20","0"
"25022","","survey-text","180","1103509","0.0-180.0-0.0","AL4QXJSJQGT4H","","","","{""Q0"":""a creepy face behind a castle. very jarring.""}","","","","","","","","","","","","","","","","","","","","","","",""
"3442","","image-slider-response","181","1106953","0.0-181.0","AL4QXJSJQGT4H","","","","","-32","","","","","","","","","","","","","","","","","","","","","",""
"4320","","image-button-response","182","1111961","0.0-182.0","AL4QXJSJQGT4H","img_art/8.jpg","1","","","","","","","","","","","","","","","","","","","","","","","","",""
"915","","image-button-response","183","1112878","0.0-183.0","AL4QXJSJQGT4H","img_art/8.jpg","1","","","","","","","","","","","","","","","","","","","","","","","","",""
"3655","","image-button-response","184","1116536","0.0-184.0-0.0","AL4QXJSJQGT4H","img_art/8.jpg","2","","","","","","","","","","","","","","","","","","","","","","","","",""
"4739","","image-button-response","185","1121277","0.0-185.0-0.0","AL4QXJSJQGT4H","img_art/8.jpg","0","","","","","","","","","","","","","","","","","","","","","","","","",""
"null","","html-keyboard-response","186","1122792","0.0-186.0","AL4QXJSJQGT4H","<p style=""font-size: 48px;"">+</p>","","","","","null","allTrialResponses","1500","1","20","img_art/8.jpg","-32","a creepy face behind a castle. very jarring.","Sara,Erika,Makayla,Jasmine,Alyssa,Gabrielle","Very interesting use of blocks,21,160,20","Striking, but not my taste,20,100,20","I see water and structures that resemble Ancient Rome,15,80,20","Not too bad despite the chaos.,16,340,20","I like how the more you like at it there are more things to discover.Very creative.,33,160,20","lots going on with great use of lots of color and geometry,24,160,20","Erika","Striking, but not my taste,20,100,20","Makayla","I see water and structures that resemble Ancient Rome,15,80,20","Sara","Very interesting use of blocks,21,160,20","0"
"3562","","survey-text","187","1126365","0.0-187.0-0.0","AL4QXJSJQGT4H","","","","{""Q0"":""we""}","","","","","","","","","","","","","","","","","","","","","","",""
"14918","","survey-text","188","1141286","0.0-188.0-0.0","AL4QXJSJQGT4H","","","","{""Q0"":""messy and muddy. not very nice to look at.""}","","","","","","","","","","","","","","","","","","","","","","",""
"2485","","image-slider-response","189","1143773","0.0-189.0","AL4QXJSJQGT4H","","","","","2","","","","","","","","","","","","","","","","","","","","","",""
"null","","image-button-response","190","1148786","0.0-190.0","AL4QXJSJQGT4H","img_art/1.jpg","null","","","","","","","","","","","","","","","","","","","","","","","","",""
"1590","","image-button-response","191","1150378","0.0-191.0","AL4QXJSJQGT4H","img_art/1.jpg","1","","","","","","","","","","","","","","","","","","","","","","","","",""
"958","","image-button-response","192","1151339","0.0-192.0-0.0","AL4QXJSJQGT4H","img_art/1.jpg","2","","","","","","","","","","","","","","","","","","","","","","","","",""
"6077","","image-button-response","193","1157418","0.0-193.0-0.0","AL4QXJSJQGT4H","img_art/1.jpg","3","","","","","","","","","","","","","","","","","","","","","","","","",""
"null","","html-keyboard-response","194","1157933","0.0-194.0","AL4QXJSJQGT4H","<p style=""font-size: 48px;"">+</p>","","","","","null","allTrialResponses","500","1","21","img_art/1.jpg","2","messy and muddy. not very nice to look at.","Sara,Erika,Makayla,Megan,Sydney,Stephanie","I feel uneasy looking at this,-41,160,20","Vague and directionless,-14,100,20","Nothing whatsoever,2,80,20","Nice colors with some 3D effects,15,200,20","I like the way that the colors blend.,35,320,20","Pretty colors. Fall day in the East Coast of USA.,42,300,20","Erika","Vague and directionless,-14,100,20","Makayla","Nothing whatsoever,2,80,20","Megan","Nice colors with some 3D effects,15,200,20","0"
"19472","","survey-text","195","1177411","0.0-195.0-0.0","AL4QXJSJQGT4H","","","","{""Q0"":""this is strange and doesnt even seem like art""}","","","","","","","","","","","","","","","","","","","","","","",""
"2399","","image-slider-response","196","1179811","0.0-196.0","AL4QXJSJQGT4H","","","","","-50","","","","","","","","","","","","","","","","","","","","","",""
"3286","","image-button-response","197","1184818","0.0-197.0","AL4QXJSJQGT4H","img_art/16.jpg","2","","","","","","","","","","","","","","","","","","","","","","","","",""
"947","","image-button-response","198","1185768","0.0-198.0","AL4QXJSJQGT4H","img_art/16.jpg","3","","","","","","","","","","","","","","","","","","","","","","","","",""
"885","","image-button-response","199","1186655","0.0-199.0-0.0","AL4QXJSJQGT4H","img_art/16.jpg","0","","","","","","","","","","","","","","","","","","","","","","","","",""
"952","","image-button-response","200","1187609","0.0-200.0-0.0","AL4QXJSJQGT4H","img_art/16.jpg","2","","","","","","","","","","","","","","","","","","","","","","","","",""
"null","","html-keyboard-response","201","1188621","0.0-201.0","AL4QXJSJQGT4H","<p style=""font-size: 48px;"">+</p>","","","","","null","allTrialResponses","1000","1","22","img_art/16.jpg","-50","this is strange and doesnt even seem like art","Olivia,Erika,Makayla,Megan,Chloe,Leslie","childhood horror,3,40,20","Very emotional,23,100,20","It's a little unsettling,2,80,20","Ugly, broken up and mismatched,-50,200,20","Fun but a little cheesy,15,220,20","This is making me feel nervous in an enjoyable way.,20,380,20","Megan","Ugly, broken up and mismatched,-50,200,20","Olivia","childhood horror,3,40,20","Makayla","It's a little unsettling,2,80,20","0"
"15031","","survey-text","202","1203657","0.0-202.0-0.0","AL4QXJSJQGT4H","","","","{""Q0"":""the blue is nice but that green is very ugly""}","","","","","","","","","","","","","","","","","","","","","","",""
"3122","","image-slider-response","203","1206781","0.0-203.0","AL4QXJSJQGT4H","","","","","-9","","","","","","","","","","","","","","","","","","","","","",""
"4900","","image-button-response","204","1211793","0.0-204.0","AL4QXJSJQGT4H","img_art/2.jpg","2","","","","","","","","","","","","","","","","","","","","","","","","",""
"4108","","image-button-response","205","1215902","0.0-205.0","AL4QXJSJQGT4H","img_art/2.jpg","2","","","","","","","","","","","","","","","","","","","","","","","","",""
"948","","image-button-response","206","1216851","0.0-206.0-0.0","AL4QXJSJQGT4H","img_art/2.jpg","5","","","","","","","","","","","","","","","","","","","","","","","","",""
"5328","","image-button-response","207","1222181","0.0-207.0-0.0","AL4QXJSJQGT4H","img_art/2.jpg","4","","","","","","","","","","","","","","","","","","","","","","","","",""
"null","","html-keyboard-response","208","1223186","0.0-208.0","AL4QXJSJQGT4H","<p style=""font-size: 48px;"">+</p>","","","","","null","allTrialResponses","1000","1","23","img_art/2.jpg","-9","the blue is nice but that green is very ugly","Olivia,Crystal,Makayla,Megan,Cassandra,Kaitlin","i liked the bright colors,13,40,20","Looks contrived and like someone tried to hard to make it abstract,-31,300,20","I don't feel indifferent,4,80,20","Colors and space work but the top scribbled killed it.,11,200,20","I didn't like this it looked like a kindergardner painted it and the green was out of place.,-46,120,20","another confusing piece of art,-12,60,20","Makayla","I don't feel indifferent,4,80,20","Kaitlin","another confusing piece of art,-12,60,20","Cassandra","I didn't like this it looked like a kindergardner painted it and the green was out of place.,-46,120,20","0"
"15335","","survey-text","209","1238526","0.0-209.0-0.0","AL4QXJSJQGT4H","","","","{""Q0"":""looks very textured and 3d""}","","","","","","","","","","","","","","","","","","","","","","",""
"2058","","image-slider-response","210","1240587","0.0-210.0","AL4QXJSJQGT4H","","","","","7","","","","","","","","","","","","","","","","","","","","","",""
"null","","image-button-response","211","1245592","0.0-211.0","AL4QXJSJQGT4H","img_art/29.jpg","null","","","","","","","","","","","","","","","","","","","","","","","","",""
"1033","","image-button-response","212","1246625","0.0-212.0","AL4QXJSJQGT4H","img_art/29.jpg","0","","","","","","","","","","","","","","","","","","","","","","","","",""
"2083","","image-button-response","213","1248711","0.0-213.0-0.0","AL4QXJSJQGT4H","img_art/29.jpg","3","","","","","","","","","","","","","","","","","","","","","","","","",""
"1143","","image-button-response","214","1249854","0.0-214.0-0.0","AL4QXJSJQGT4H","img_art/29.jpg","4","","","","","","","","","","","","","","","","","","","","","","","","",""
"null","","html-keyboard-response","215","1250356","0.0-215.0","AL4QXJSJQGT4H","<p style=""font-size: 48px;"">+</p>","","","","","null","allTrialResponses","500","1","24","img_art/29.jpg","7","looks very textured and 3d","Angela,Maria,Makayla,Brittany,Cassandra,Kaitlin","I would like this piece better without the red X across it,-10,260,20","the mixed medium / collage annoys me,-19,120,20","Looks like a jail cell,-15,80,20","It looks likes there's a lot going on, but they don't fit together.,2,40,20","Neural...just a blackboard jungle.,3,120,20","seems fun, looks like a battle zone,22,60,20","Angela","I would like this piece better without the red X across it,-10,260,20","Brittany","It looks likes there's a lot going on, but they don't fit together.,2,40,20","Cassandra","Neural...just a blackboard jungle.,3,120,20","0"
"25778","","survey-text","216","1276140","0.0-216.0-0.0","AL4QXJSJQGT4H","","","","{""Q0"":""ilike the pops of color. i feel like you can interpret this piece many ways.""}","","","","","","","","","","","","","","","","","","","","","","",""
"2693","","image-slider-response","217","1278838","0.0-217.0","AL4QXJSJQGT4H","","","","","16","","","","","","","","","","","","","","","","","","","","","",""
"null","","image-button-response","218","1283846","0.0-218.0","AL4QXJSJQGT4H","img_art/11.jpg","null","","","","","","","","","","","","","","","","","","","","","","","","",""
"3415","","image-button-response","219","1287264","0.0-219.0","AL4QXJSJQGT4H","img_art/11.jpg","0","","","","","","","","","","","","","","","","","","","","","","","","",""
"1440","","image-button-response","220","1288707","0.0-220.0-0.0","AL4QXJSJQGT4H","img_art/11.jpg","4","","","","","","","","","","","","","","","","","","","","","","","","",""
"1301","","image-button-response","221","1290010","0.0-221.0-0.0","AL4QXJSJQGT4H","img_art/11.jpg","3","","","","","","","","","","","","","","","","","","","","","","","","",""
"null","","html-keyboard-response","222","1291023","0.0-222.0","AL4QXJSJQGT4H","<p style=""font-size: 48px;"">+</p>","","","","","null","allTrialResponses","1000","1","25","img_art/11.jpg","16","ilike the pops of color. i feel like you can interpret this piece many ways.","Angela,Breanna,Katherine,Brittany,Cassandra,Nicole","I like this one very much, especially the shades of gray.,30,260,20","Very cool, makes me feel good,39,380,20","Makes me feel like my vision is breaking,19,120,20","It reminds me of telephone wires.,1,40,20","I liked it it looked like an roller coasters at an amusment park.,16,120,20","Those vertical strokes are to die for and I love these colors !!!,50,20,20","Angela","I like this one very much, especially the shades of gray.,30,260,20","Cassandra","I liked it it looked like an roller coasters at an amusment park.,16,120,20","Brittany","It reminds me of telephone wires.,1,40,20","0"
"4455","","survey-text","223","1295497","0.0-223.0-0.0","AL4QXJSJQGT4H","","","","{""Q0"":""table""}","","","","","","","","","","","","","","","","","","","","","","",""
"14503","","survey-text","224","1310002","0.0-224.0-0.0","AL4QXJSJQGT4H","","","","{""Q0"":""looks like a child's fingerpainting""}","","","","","","","","","","","","","","","","","","","","","","",""
"3309","","image-slider-response","225","1313312","0.0-225.0","AL4QXJSJQGT4H","","","","","-26","","","","","","","","","","","","","","","","","","","","","",""
"null","","image-button-response","226","1318321","0.0-226.0","AL4QXJSJQGT4H","img_art/30.jpg","null","","","","","","","","","","","","","","","","","","","","","","","","",""
"864","","image-button-response","227","1319186","0.0-227.0","AL4QXJSJQGT4H","img_art/30.jpg","4","","","","","","","","","","","","","","","","","","","","","","","","",""
"1027","","image-button-response","228","1320216","0.0-228.0-0.0","AL4QXJSJQGT4H","img_art/30.jpg","0","","","","","","","","","","","","","","","","","","","","","","","","",""
"2010","","image-button-response","229","1322228","0.0-229.0-0.0","AL4QXJSJQGT4H","img_art/30.jpg","2","","","","","","","","","","","","","","","","","","","","","","","","",""
"null","","html-keyboard-response","230","1323743","0.0-230.0","AL4QXJSJQGT4H","<p style=""font-size: 48px;"">+</p>","","","","","null","allTrialResponses","1500","1","26","img_art/30.jpg","-26","looks like a child's fingerpainting","Angela,Isabella,Allison,Brittany,Cassandra,Heather","Really don't like this piece. It feels very lazy to me.,-31,260,20","I like the back but the red lines in the front distress me,-7,280,20","Dislike the contrast here.,-5,140,20","The colors and the brushstrokes are interesting enough.,17,40,20","I didn't like this...it looks like someone just finger painted it.,-10,120,20","beautiful paint brush strokes,1,260,20","Cassandra","I didn't like this...it looks like someone just finger painted it.,-10,120,20","Angela","Really don't like this piece. It feels very lazy to me.,-31,260,20","Allison","Dislike the contrast here.,-5,140,20","0"
"30363","","survey-text","231","1354112","0.0-231.0-0.0","AL4QXJSJQGT4H","","","","{""Q0"":""i think i see two people but it's a confusing piece to look at""}","","","","","","","","","","","","","","","","","","","","","","",""
"3047","","image-slider-response","232","1357162","0.0-232.0","AL4QXJSJQGT4H","","","","","-4","","","","","","","","","","","","","","","","","","","","","",""
"null","","image-button-response","233","1362167","0.0-233.0","AL4QXJSJQGT4H","img_art/28.jpg","null","","","","","","","","","","","","","","","","","","","","","","","","",""
"2123","","image-button-response","234","1364292","0.0-234.0","AL4QXJSJQGT4H","img_art/28.jpg","3","","","","","","","","","","","","","","","","","","","","","","","","",""
"1850","","image-button-response","235","1366142","0.0-235.0-0.0","AL4QXJSJQGT4H","img_art/28.jpg","2","","","","","","","","","","","","","","","","","","","","","","","","",""
"4195","","image-button-response","236","1370339","0.0-236.0-0.0","AL4QXJSJQGT4H","img_art/28.jpg","4","","","","","","","","","","","","","","","","","","","","","","","","",""
"null","","html-keyboard-response","237","1370851","0.0-237.0","AL4QXJSJQGT4H","<p style=""font-size: 48px;"">+</p>","","","","","null","allTrialResponses","500","1","27","img_art/28.jpg","-4","i think i see two people but it's a confusing piece to look at","Angela,Meghan,Allison,Sierra,Cassandra,Dominique","This reminds me of internal organs.,-10,260,20","I don't like the color choice,-30,220,20","Dislike the colors.,-20,140,20","i like the colors and the shapes look like people,20,260,20","Hate it...brown and drab,-37,120,20","This is one of my favorites. It says to me to take time for people,37,400,20","Sierra","i like the colors and the shapes look like people,20,260,20","Allison","Dislike the colors.,-20,140,20","Cassandra","Hate it...brown and drab,-37,120,20","0"
"28361","","survey-text","238","1399218","0.0-238.0-0.0","AL4QXJSJQGT4H","","","","{""Q0"":""very colorful and bright. i like the use of the yellow contrasting the other colors""}","","","","","","","","","","","","","","","","","","","","","","",""
"3488","","image-slider-response","239","1402708","0.0-239.0","AL4QXJSJQGT4H","","","","","27","","","","","","","","","","","","","","","","","","","","","",""
"4264","","image-button-response","240","1407712","0.0-240.0","AL4QXJSJQGT4H","img_art/22.jpg","1","","","","","","","","","","","","","","","","","","","","","","","","",""
"656","","image-button-response","241","1408369","0.0-241.0","AL4QXJSJQGT4H","img_art/22.jpg","3","","","","","","","","","","","","","","","","","","","","","","","","",""
"2451","","image-button-response","242","1410821","0.0-242.0-0.0","AL4QXJSJQGT4H","img_art/22.jpg","1","","","","","","","","","","","","","","","","","","","","","","","","",""
"1858","","image-button-response","243","1412681","0.0-243.0-0.0","AL4QXJSJQGT4H","img_art/22.jpg","2","","","","","","","","","","","","","","","","","","","","","","","","",""
"null","","html-keyboard-response","244","1413691","0.0-244.0","AL4QXJSJQGT4H","<p style=""font-size: 48px;"">+</p>","","","","","null","allTrialResponses","1000","1","28","img_art/22.jpg","27","very colorful and bright. i like the use of the yellow contrasting the other colors","Catherine,Mariah,Allison,Sierra,Cassandra,Brianna","Scary monsters lurking causing confusion.,-40,160,20","The colors are pleasant, the shapes are inviting.,21,140,20","Very generic mix of primary colors and shapes. Not a huge fan.,-10,140,20","colorful. but not much happening,1,260,20","Don't like it...too much red,-17,120,20","Like the black key and the rainbow color theme.,31,20,20","Sierra","colorful. but not much happening,1,260,20","Mariah","The colors are pleasant, the shapes are inviting.,21,140,20","Allison","Very generic mix of primary colors and shapes. Not a huge fan.,-10,140,20","0"
"13793","","survey-text","245","1427490","0.0-245.0-0.0","AL4QXJSJQGT4H","","","","{""Q0"":""the blue really pops from the black ""}","","","","","","","","","","","","","","","","","","","","","","",""
"2424","","image-slider-response","246","1429917","0.0-246.0","AL4QXJSJQGT4H","","","","","28","","","","","","","","","","","","","","","","","","","","","",""
"4636","","image-button-response","247","1434934","0.0-247.0","AL4QXJSJQGT4H","img_art/15.jpg","1","","","","","","","","","","","","","","","","","","","","","","","","",""
"2018","","image-button-response","248","1436954","0.0-248.0","AL4QXJSJQGT4H","img_art/15.jpg","1","","","","","","","","","","","","","","","","","","","","","","","","",""
"978","","image-button-response","249","1437933","0.0-249.0-0.0","AL4QXJSJQGT4H","img_art/15.jpg","5","","","","","","","","","","","","","","","","","","","","","","","","",""
"1431","","image-button-response","250","1439366","0.0-250.0-0.0","AL4QXJSJQGT4H","img_art/15.jpg","4","","","","","","","","","","","","","","","","","","","","","","","","",""
"null","","html-keyboard-response","251","1439881","0.0-251.0","AL4QXJSJQGT4H","<p style=""font-size: 48px;"">+</p>","","","","","null","allTrialResponses","500","1","29","img_art/15.jpg","28","the blue really pops from the black ","Alexis,Mariah,Allison,Sierra,Caroline,Cheyenne","Not a fan of abstract, but the black is very striking,10,100,20","It is visually appealing, stark and simple but natural.,41,140,20","Eyes hunt for the blue in the black.,5,140,20","i cant find somthing ilike about it,-31,260,20","Makes me think of a bush and flowers and spring and happy warm times,25,100,20","I like how the black and blue clash.,14,200,20","Mariah","It is visually appealing, stark and simple but natural.,41,140,20","Cheyenne","I like how the black and blue clash.,14,200,20","Caroline","Makes me think of a bush and flowers and spring and happy warm times,25,100,20","0"
"25021","","survey-text","252","1464910","0.0-252.0-0.0","AL4QXJSJQGT4H","","","","{""Q0"":""very messy. looks like a kid's crayon drawing.""}","","","","","","","","","","","","","","","","","","","","","","",""
"2215","","image-slider-response","253","1467128","0.0-253.0","AL4QXJSJQGT4H","","","","","-17","","","","","","","","","","","","","","","","","","","","","",""
"null","","image-button-response","254","1472135","0.0-254.0","AL4QXJSJQGT4H","img_art/9.jpg","null","","","","","","","","","","","","","","","","","","","","","","","","",""
"821","","image-button-response","255","1472957","0.0-255.0","AL4QXJSJQGT4H","img_art/9.jpg","5","","","","","","","","","","","","","","","","","","","","","","","","",""
"782","","image-button-response","256","1473740","0.0-256.0-0.0","AL4QXJSJQGT4H","img_art/9.jpg","3","","","","","","","","","","","","","","","","","","","","","","","","",""
"984","","image-button-response","257","1474726","0.0-257.0-0.0","AL4QXJSJQGT4H","img_art/9.jpg","2","","","","","","","","","","","","","","","","","","","","","","","","",""
"null","","html-keyboard-response","258","1475742","0.0-258.0","AL4QXJSJQGT4H","<p style=""font-size: 48px;"">+</p>","","","","","null","allTrialResponses","1000","1","30","img_art/9.jpg","-17","very messy. looks like a kid's crayon drawing.","Marissa,Mariah,Julia,Katelyn,Caroline,Cheyenne","It makes me think of Snow White sleeping,11,160,20","Pleasant in all ways.,27,140,20","I don't like the framing of this one,-25,40,20","The lack of concrete form kind of turns me off,-2,100,20","Stirs up emotions of watching someone sleep which is relaxing,11,100,20","Too much going on, don't know what the focus is,-11,200,20","Cheyenne","Too much going on, don't know what the focus is,-11,200,20","Katelyn","The lack of concrete form kind of turns me off,-2,100,20","Julia","I don't like the framing of this one,-25,40,20","0"
"2523","","image-button-response_instructions","259","1478274","0.0-259.0","AL4QXJSJQGT4H","","0","instructions","","","","","","","","","","","","","","","","","","","","","","","",""
