"rt","url","trial_type","trial_index","time_elapsed","internal_node_id","participant_id","stimulus","button_pressed","Name","responses","response","key_press","variableName","fixationTime","condition","trial","photo","subjectRating","subjectResponse","agentsNames","agent_1_Response","agent_2_Response","agent_3_Response","agent_4_Response","agent_5_Response","agent_6_Response","kept_1_name","kept_1_response","kept_2_name","kept_2_response","kept_3_name","kept_3_response","errorCounter"
"6845","external_page_harvard.html","external-html","0","6952","0.0-0.0","AMLZT92RF3MYY","","","","","","","","","","","","","","","","","","","","","","","","","","",""
"1364","","image-button-response","1","8317","0.0-1.0","AMLZT92RF3MYY","","0","","","","","","","","","","","","","","","","","","","","","","","","",""
"1538","","image-button-response","2","9857","0.0-2.0-0.0","AMLZT92RF3MYY","","1","phone","","","","","","","","","","","","","","","","","","","","","","","",""
"4265","","survey-text","3","14123","0.0-3.0-0.0","AMLZT92RF3MYY","","","","{""Q0"":""AMLZT92RF3MYY""}","","","","","","","","","","","","","","","","","","","","","","",""
"6397","","image-button-response_instructions","4","20521","0.0-4.0","AMLZT92RF3MYY","","0","instructions","","","","","","","","","","","","","","","","","","","","","","","",""
"11513","","image-button-response_instructions","5","32035","0.0-5.0","AMLZT92RF3MYY","img_art/ins/popularity/ins1.png","0","instructions","","","","","","","","","","","","","","","","","","","","","","","",""
"3370","","image-button-response_instructions","6","35405","0.0-6.0","AMLZT92RF3MYY","img_art/ins/popularity/ins2.png","0","instructions","","","","","","","","","","","","","","","","","","","","","","","",""
"4406","","image-button-response_instructions","7","39811","0.0-7.0","AMLZT92RF3MYY","img_art/ins/popularity/ins2Extreme.png","0","instructions","","","","","","","","","","","","","","","","","","","","","","","",""
"7724","","image-button-response_instructions","8","47535","0.0-8.0","AMLZT92RF3MYY","img_art/ins/popularity/ins3KEEPpop.PNG","0","instructions","","","","","","","","","","","","","","","","","","","","","","","",""
"2211","","image-button-response_instructions","9","49747","0.0-9.0","AMLZT92RF3MYY","img_art/ins/popularity/ins3ANamepop.PNG","0","instructions","","","","","","","","","","","","","","","","","","","","","","","",""
"2554","","image-button-response_instructions","10","52301","0.0-10.0","AMLZT92RF3MYY","img_art/ins/popularity/ins3ARatingpop.png","0","instructions","","","","","","","","","","","","","","","","","","","","","","","",""
"1405","","image-button-response_instructions","11","53707","0.0-11.0","AMLZT92RF3MYY","img_art/ins/popularity/ins3ATextpop.png","0","instructions","","","","","","","","","","","","","","","","","","","","","","","",""
"3382","","image-button-response_instructions","12","57090","0.0-12.0","AMLZT92RF3MYY","img_art/ins/popularity/ins3ALikespop.png","0","instructions","","","","","","","","","","","","","","","","","","","","","","","",""
"5292","","image-button-response_instructions","13","62382","0.0-13.0","AMLZT92RF3MYY","img_art/ins/popularity/ins3KEEPpop.PNG","0","instructions","","","","","","","","","","","","","","","","","","","","","","","",""
"2054","","image-button-response_instructions","14","64436","0.0-14.0","AMLZT92RF3MYY","img_art/ins/popularity/ins3_5RED.png","0","instructions","","","","","","","","","","","","","","","","","","","","","","","",""
"3069","","image-button-response_instructions","15","67506","0.0-15.0","AMLZT92RF3MYY","img_art/ins/popularity/ins3KEEPpop.PNG","0","instructions","","","","","","","","","","","","","","","","","","","","","","","",""
"4336","","image-button-response_instructions","16","71842","0.0-16.0","AMLZT92RF3MYY","img_art/ins/popularity/ins4KEEPpop.PNG","0","instructions","","","","","","","","","","","","","","","","","","","","","","","",""
"3110","","image-button-response_instructions","17","74952","0.0-17.0","AMLZT92RF3MYY","img_art/ins/popularity/ins5KEEPpop.PNG","0","instructions","","","","","","","","","","","","","","","","","","","","","","","",""
"1061","","image-button-response_instructions","18","76014","0.0-18.0","AMLZT92RF3MYY","","0","instructions","","","","","","","","","","","","","","","","","","","","","","","",""
"5589","","survey-text","19","81616","0.0-19.0-0.0","AMLZT92RF3MYY","","","","{""Q0"":""but""}","","","","","","","","","","","","","","","","","","","","","","",""
"25188","","survey-text","20","106804","0.0-20.0-0.0","AMLZT92RF3MYY","","","","{""Q0"":""the colors in this painting provide a sense of calming to me""}","","","","","","","","","","","","","","","","","","","","","","",""
"7124.700000047684","","image-slider-response","21","113930","0.0-21.0","AMLZT92RF3MYY","","","","","14","","","","","","","","","","","","","","","","","","","","","",""
"null","","image-button-response","22","118933","0.0-22.0","AMLZT92RF3MYY","img_art/ins/1.jpg","null","","","","","","","","","","","","","","","","","","","","","","","","",""
"535","","image-button-response","23","119468","0.0-23.0","AMLZT92RF3MYY","img_art/ins/1.jpg","1","","","","","","","","","","","","","","","","","","","","","","","","",""
"2092","","image-button-response","24","121562","0.0-24.0-0.0","AMLZT92RF3MYY","img_art/ins/1.jpg","3","","","","","","","","","","","","","","","","","","","","","","","","",""
"1966","","image-button-response","25","123530","0.0-25.0-0.0","AMLZT92RF3MYY","img_art/ins/1.jpg","5","","","","","","","","","","","","","","","","","","","","","","","","",""
"null","","html-keyboard-response","26","124531","0.0-26.0","AMLZT92RF3MYY","<p style=""font-size: 48px;"">+</p>","","","","","null","allTrialResponses","1000","1","-2","img_art/ins/1.jpg","14","the colors in this painting provide a sense of calming to me","Adam,Alex,Ben,Carl,Daniel,Jack","Seems like doodles,-20,20,20","very creative work.,36,40,20","This color reminds me of poo,-46,60,20","very calming artwork,42,80,20","It looks like a murder scene.,-48,100,20","I like the sophisticated brushwork,40,120,20","Alex","very creative work.,36,40,20","Carl","very calming artwork,42,80,20","Jack","I like the sophisticated brushwork,40,120,20","0"
"23658","","survey-text","27","148191","0.0-27.0-0.0","AMLZT92RF3MYY","","","","{""Q0"":""the red colors in this painting reminds me of blood. seems like a strong painting with dark colors""}","","","","","","","","","","","","","","","","","","","","","","",""
"7294.900000095367","","image-slider-response","28","155487","0.0-28.0","AMLZT92RF3MYY","","","","","-10","","","","","","","","","","","","","","","","","","","","","",""
"2797","","image-button-response","29","160489","0.0-29.0","AMLZT92RF3MYY","img_art/ins/2.jpg","0","","","","","","","","","","","","","","","","","","","","","","","","",""
"3295","","image-button-response","30","163785","0.0-30.0","AMLZT92RF3MYY","img_art/ins/2.jpg","0","","","","","","","","","","","","","","","","","","","","","","","","",""
"8765","","image-button-response","31","172552","0.0-31.0-0.0","AMLZT92RF3MYY","img_art/ins/2.jpg","3","","","","","","","","","","","","","","","","","","","","","","","","",""
"513","","image-button-response","32","173065","0.0-32.0-0.0","AMLZT92RF3MYY","img_art/ins/2.jpg","4","","","","","","","","","","","","","","","","","","","","","","","","",""
"null","","html-keyboard-response","33","174567","0.0-33.0","AMLZT92RF3MYY","<p style=""font-size: 48px;"">+</p>","","","","","null","allTrialResponses","1500","1","-1","img_art/ins/2.jpg","-10","the red colors in this painting reminds me of blood. seems like a strong painting with dark colors","James,Alex,Kyle,Carl,John,Jack","looks too angry,-50,140,20","I like the blocks of color arrangements,30,40,20","Idk, it is just annoying,-32,180,20","I can feel the artist's passion in it,45,80,20","love the texture of paint,48,160,20","I would never be able to compose a sophisticated pallete like this,48,120,20","James","looks too angry,-50,140,20","Carl","I can feel the artist's passion in it,45,80,20","John","love the texture of paint,48,160,20","0"
"14487","","survey-text","34","189055","0.0-34.0-0.0","AMLZT92RF3MYY","","","","{""Q0"":""i really like the brush strokes and shades of blue in this painting""}","","","","","","","","","","","","","","","","","","","","","","",""
"3614.800000190735","","image-slider-response","35","192671","0.0-35.0","AMLZT92RF3MYY","","","","","24","","","","","","","","","","","","","","","","","","","","","",""
"3157","","image-button-response","36","197673","0.0-36.0","AMLZT92RF3MYY","img_art/ins/3.jpg","1","","","","","","","","","","","","","","","","","","","","","","","","",""
"1209","","image-button-response","37","198883","0.0-37.0","AMLZT92RF3MYY","img_art/ins/3.jpg","1","","","","","","","","","","","","","","","","","","","","","","","","",""
"4687","","image-button-response","38","203571","0.0-38.0-0.0","AMLZT92RF3MYY","img_art/ins/3.jpg","4","","","","","","","","","","","","","","","","","","","","","","","","",""
"655","","image-button-response","39","204227","0.0-39.0-0.0","AMLZT92RF3MYY","img_art/ins/3.jpg","5","","","","","","","","","","","","","","","","","","","","","","","","",""
"null","","html-keyboard-response","40","205730","0.0-40.0","AMLZT92RF3MYY","<p style=""font-size: 48px;"">+</p>","","","","","null","allTrialResponses","1500","1","0","img_art/ins/3.jpg","24","i really like the brush strokes and shades of blue in this painting","James,Mike,Ron,Carl,John,Sam","My worst nightmare,-42,140,20","enjoy the different shades of blue,22,200,20","It looks depressing,-26,220,20","It's an alright work,15,80,20","I like the overlapping of brushes,41,160,20","I can feel a rainy day from this painting,18,240,20","Mike","enjoy the different shades of blue,22,200,20","John","I like the overlapping of brushes,41,160,20","Sam","I can feel a rainy day from this painting,18,240,20","0"
"4767","","image-button-response_instructions","41","210499","0.0-41.0","AMLZT92RF3MYY","","0","instructions","","","","","","","","","","","","","","","","","","","","","","","",""
"8391","","survey-likert","42","218891","0.0-42.0-0.0","AMLZT92RF3MYY","","","","{""Q0"":"""",""Q1"":0,""Q2"":1}","","","","","","","","","","","","","","","","","","","","","","",""
"3840","","survey-text","43","222735","0.0-43.0-0.0","AMLZT92RF3MYY","","","","{""Q0"":""rock""}","","","","","","","","","","","","","","","","","","","","","","",""
"28677","","survey-text","44","251413","0.0-44.0-0.0","AMLZT92RF3MYY","","","","{""Q0"":""this seems like an abstract painting to me. the sepia tones give me a sense of nostalgia""}","","","","","","","","","","","","","","","","","","","","","","",""
"7983","","image-slider-response","45","259397","0.0-45.0","AMLZT92RF3MYY","","","","","-5","","","","","","","","","","","","","","","","","","","","","",""
"null","","image-button-response","46","264410","0.0-46.0","AMLZT92RF3MYY","img_art/14.jpg","null","","","","","","","","","","","","","","","","","","","","","","","","",""
"1400","","image-button-response","47","265811","0.0-47.0","AMLZT92RF3MYY","img_art/14.jpg","3","","","","","","","","","","","","","","","","","","","","","","","","",""
"3023","","image-button-response","48","268835","0.0-48.0-0.0","AMLZT92RF3MYY","img_art/14.jpg","4","","","","","","","","","","","","","","","","","","","","","","","","",""
"841","","image-button-response","49","269678","0.0-49.0-0.0","AMLZT92RF3MYY","img_art/14.jpg","5","","","","","","","","","","","","","","","","","","","","","","","","",""
"null","","html-keyboard-response","50","270180","0.0-50.0","AMLZT92RF3MYY","<p style=""font-size: 48px;"">+</p>","","","","","null","allTrialResponses","500","1","1","img_art/14.jpg","-5","this seems like an abstract painting to me. the sepia tones give me a sense of nostalgia","Marcus,Alexis,Jason,Kyle,Jeffrey,Dakota","I like the colors and the shapes are interesting,11,60,20","It looks like a table centerpiece,-22,140,20","Focal point is interesting,5,20,20","The colors are nice and it reminds me of a shrub or tree,10,340,20","positive colours, makes me to look at it and investigate what is going on,27,40,20","feels incomplete, poorly planned/executed,-34,280,20","Kyle","The colors are nice and it reminds me of a shrub or tree,10,340,20","Jeffrey","positive colours, makes me to look at it and investigate what is going on,27,40,20","Dakota","feels incomplete, poorly planned/executed,-34,280,20","0"
"25312","","survey-text","51","295493","0.0-51.0-0.0","AMLZT92RF3MYY","","","","{""Q0"":""this painting reminds me of medieval times""}","","","","","","","","","","","","","","","","","","","","","","",""
"6521.099999904633","","image-slider-response","52","302015","0.0-52.0","AMLZT92RF3MYY","","","","","-10","","","","","","","","","","","","","","","","","","","","","",""
"4657","","image-button-response","53","307018","0.0-53.0","AMLZT92RF3MYY","img_art/20.jpg","0","","","","","","","","","","","","","","","","","","","","","","","","",""
"1459","","image-button-response","54","308478","0.0-54.0","AMLZT92RF3MYY","img_art/20.jpg","0","","","","","","","","","","","","","","","","","","","","","","","","",""
"2327","","image-button-response","55","310806","0.0-55.0-0.0","AMLZT92RF3MYY","img_art/20.jpg","0","","","","","","","","","","","","","","","","","","","","","","","","",""
"781","","image-button-response","56","314072","0.0-55.1-0.1","AMLZT92RF3MYY","img_art/20.jpg","2","","","","","","","","","","","","","","","","","","","","","","","","",""
"5351","","image-button-response","57","319424","0.0-56.0-0.0","AMLZT92RF3MYY","img_art/20.jpg","5","","","","","","","","","","","","","","","","","","","","","","","","",""
"null","","html-keyboard-response","58","319926","0.0-57.0","AMLZT92RF3MYY","<p style=""font-size: 48px;"">+</p>","","","","","null","allTrialResponses","500","1","2","img_art/20.jpg","-10","this painting reminds me of medieval times","Dalton,Trevor,Cody,Kyle,Jeffrey,Dakota","make me feel like its a little country maybe a tractor and a skull head of a bull,1,300,20","it looks like a piccasso knock off,-23,280,20","I like the distortion of the objects, good colors,20,180,20","This one is okay but I don't really care for it,5,340,20","looks like an auto accident,-30,40,20","very fluid and mysterious,37,280,20","Dalton","make me feel like its a little country maybe a tractor and a skull head of a bull,1,300,20","Cody","I like the distortion of the objects, good colors,20,180,20","Dakota","very fluid and mysterious,37,280,20","2"
"28974","","survey-text","59","348902","0.0-58.0-0.0","AMLZT92RF3MYY","","","","{""Q0"":""i like the abstract block architecture and face in the sky""}","","","","","","","","","","","","","","","","","","","","","","",""
"6694.5","","image-slider-response","60","355597","0.0-59.0","AMLZT92RF3MYY","","","","","18","","","","","","","","","","","","","","","","","","","","","",""
"null","","image-button-response","61","360600","0.0-60.0","AMLZT92RF3MYY","img_art/8.jpg","null","","","","","","","","","","","","","","","","","","","","","","","","",""
"2839","","image-button-response","62","363439","0.0-61.0","AMLZT92RF3MYY","img_art/8.jpg","1","","","","","","","","","","","","","","","","","","","","","","","","",""
"2539","","image-button-response","63","365979","0.0-62.0-0.0","AMLZT92RF3MYY","img_art/8.jpg","3","","","","","","","","","","","","","","","","","","","","","","","","",""
"1367","","image-button-response","64","367347","0.0-63.0-0.0","AMLZT92RF3MYY","img_art/8.jpg","4","","","","","","","","","","","","","","","","","","","","","","","","",""
"null","","html-keyboard-response","65","367848","0.0-64.0","AMLZT92RF3MYY","<p style=""font-size: 48px;"">+</p>","","","","","null","allTrialResponses","500","1","3","img_art/8.jpg","18","i like the abstract block architecture and face in the sky","Dalton,Dustin,Cody,Zachary,Patrick,Dakota","woman looking over a the community,1,300,20","I like the colors. But I don't like the faces, they look distraught. Faces and sharp shapes make me anxious,1,20,20","Love the colors & block-style,50,180,20","I like all of the faces that can be found in this piece. Interesting.,35,400,20","Very interesting use of blocks,21,280,20","chaotic and disassembled,-8,280,20","Dustin","I like the colors. But I don't like the faces, they look distraught. Faces and sharp shapes make me anxious,1,20,20","Zachary","I like all of the faces that can be found in this piece. Interesting.,35,400,20","Patrick","Very interesting use of blocks,21,280,20","2"
"17433","","survey-text","66","385283","0.0-65.0-0.0","AMLZT92RF3MYY","","","","{""Q0"":""the person in the center of the painting makes me feel lonely""}","","","","","","","","","","","","","","","","","","","","","","",""
"3694.9000000953674","","image-slider-response","67","388979","0.0-66.0","AMLZT92RF3MYY","","","","","-5","","","","","","","","","","","","","","","","","","","","","",""
"4360","","image-button-response","68","393982","0.0-67.0","AMLZT92RF3MYY","img_art/19.jpg","1","","","","","","","","","","","","","","","","","","","","","","","","",""
"620","","image-button-response","69","394603","0.0-68.0","AMLZT92RF3MYY","img_art/19.jpg","1","","","","","","","","","","","","","","","","","","","","","","","","",""
"2289","","image-button-response","70","396893","0.0-69.0-0.0","AMLZT92RF3MYY","img_art/19.jpg","2","","","","","","","","","","","","","","","","","","","","","","","","",""
"3413","","image-button-response","71","400307","0.0-70.0-0.0","AMLZT92RF3MYY","img_art/19.jpg","5","","","","","","","","","","","","","","","","","","","","","","","","",""
"null","","html-keyboard-response","72","401309","0.0-71.0","AMLZT92RF3MYY","<p style=""font-size: 48px;"">+</p>","","","","","null","allTrialResponses","1000","1","4","img_art/19.jpg","-5","the person in the center of the painting makes me feel lonely","Bryan,Dustin,Anthony,Zachary,Patrick,Shane","Looks like a child's rendering of a city street but not too sure.,0,400,20","Too busy, makes me anxious and frustrated. Lots of movement in the brush strokes.,-9,20,20","Very, very ugly and sloppy,-31,200,20","Reminds me of a busy town. Chaotic in nature.,-11,400,20","I like the vibrant color blocks,13,280,20","A day in a small city,45,80,20","Dustin","Too busy, makes me anxious and frustrated. Lots of movement in the brush strokes.,-9,20,20","Anthony","Very, very ugly and sloppy,-31,200,20","Shane","A day in a small city,45,80,20","2"
"28533","","survey-text","73","429844","0.0-72.0-0.0","AMLZT92RF3MYY","","","","{""Q0"":""this painting looks empty to me, and makes me feel the same way""}","","","","","","","","","","","","","","","","","","","","","","",""
"6364.899999856949","","image-slider-response","74","436210","0.0-73.0","AMLZT92RF3MYY","","","","","-14","","","","","","","","","","","","","","","","","","","","","",""
"2740","","image-button-response","75","441211","0.0-74.0","AMLZT92RF3MYY","img_art/5.jpg","0","","","","","","","","","","","","","","","","","","","","","","","","",""
"599","","image-button-response","76","441812","0.0-75.0","AMLZT92RF3MYY","img_art/5.jpg","0","","","","","","","","","","","","","","","","","","","","","","","","",""
"4779","","image-button-response","77","446592","0.0-76.0-0.0","AMLZT92RF3MYY","img_art/5.jpg","2","","","","","","","","","","","","","","","","","","","","","","","","",""
"859","","image-button-response","78","447452","0.0-77.0-0.0","AMLZT92RF3MYY","img_art/5.jpg","4","","","","","","","","","","","","","","","","","","","","","","","","",""
"null","","html-keyboard-response","79","448454","0.0-78.0","AMLZT92RF3MYY","<p style=""font-size: 48px;"">+</p>","","","","","null","allTrialResponses","1000","1","5","img_art/5.jpg","-14","this painting looks empty to me, and makes me feel the same way","Blake,Dustin,Anthony,Devon,Garrett,Shane","puke yellow with nothing but sadness,-35,280,20","I don't get it at all. But, maybe it is the top portion of a piece of fruit.,-50,20,20","This piece doesn't really stand out.,0,200,20","a bit confused about this picture,-9,400,20","I don't know what it's supposed to be and it looks ugly the way the colors are on the yellow cube.,-50,180,20","Seems clean and neat,11,80,20","Blake","puke yellow with nothing but sadness,-35,280,20","Anthony","This piece doesn't really stand out.,0,200,20","Garrett","I don't know what it's supposed to be and it looks ugly the way the colors are on the yellow cube.,-50,180,20","2"
"3698","","survey-text","80","452156","0.0-79.0-0.0","AMLZT92RF3MYY","","","","{""Q0"":""sky""}","","","","","","","","","","","","","","","","","","","","","","",""
"26627","","survey-text","81","478783","0.0-80.0-0.0","AMLZT92RF3MYY","","","","{""Q0"":""this painting seems like a chaotic mess to me, although i was surprised to see a face appear after looking at it for a few seconds""}","","","","","","","","","","","","","","","","","","","","","","",""
"7435.200000047684","","image-slider-response","82","486219","0.0-81.0","AMLZT92RF3MYY","","","","","2","","","","","","","","","","","","","","","","","","","","","",""
"3912","","image-button-response","83","491220","0.0-82.0","AMLZT92RF3MYY","img_art/9.jpg","1","","","","","","","","","","","","","","","","","","","","","","","","",""
"131","","image-button-response","84","491353","0.0-83.0","AMLZT92RF3MYY","img_art/9.jpg","1","","","","","","","","","","","","","","","","","","","","","","","","",""
"5490","","image-button-response","85","496845","0.0-84.0-0.0","AMLZT92RF3MYY","img_art/9.jpg","4","","","","","","","","","","","","","","","","","","","","","","","","",""
"794","","image-button-response","86","497641","0.0-85.0-0.0","AMLZT92RF3MYY","img_art/9.jpg","3","","","","","","","","","","","","","","","","","","","","","","","","",""
"null","","html-keyboard-response","87","499144","0.0-86.0","AMLZT92RF3MYY","<p style=""font-size: 48px;"">+</p>","","","","","null","allTrialResponses","1500","1","6","img_art/9.jpg","2","this painting seems like a chaotic mess to me, although i was surprised to see a face appear after looking at it for a few seconds","Blake,Daniel,Anthony,Brendan,Garrett,Adrian","looks like a woman in bed and its ok,8,280,20","A troubled painter was influenced by anger and mad at the woman in the middle, color not bad,-32,320,20","This piece is very boring to look at.,-27,200,20","not my type of art,-33,340,20","This looks like someone sleeping in a bed, and I think the colors make it look interesting.,20,180,20","Looks like my niece's doodles.,-50,60,20","Daniel","A troubled painter was influenced by anger and mad at the woman in the middle, color not bad,-32,320,20","Garrett","This looks like someone sleeping in a bed, and I think the colors make it look interesting.,20,180,20","Brendan","not my type of art,-33,340,20","2"
"29046","","survey-text","88","528193","0.0-87.0-0.0","AMLZT92RF3MYY","","","","{""Q0"":""looks like a bunch of little windows, the various memories of a person""}","","","","","","","","","","","","","","","","","","","","","","",""
"4593","","image-slider-response","89","532787","0.0-88.0","AMLZT92RF3MYY","","","","","12","","","","","","","","","","","","","","","","","","","","","",""
"3654","","image-button-response","90","537789","0.0-89.0","AMLZT92RF3MYY","img_art/12.jpg","0","","","","","","","","","","","","","","","","","","","","","","","","",""
"708","","image-button-response","91","538499","0.0-90.0","AMLZT92RF3MYY","img_art/12.jpg","0","","","","","","","","","","","","","","","","","","","","","","","","",""
"4155","","image-button-response","92","542655","0.0-91.0-0.0","AMLZT92RF3MYY","img_art/12.jpg","1","","","","","","","","","","","","","","","","","","","","","","","","",""
"1217","","image-button-response","93","543874","0.0-92.0-0.0","AMLZT92RF3MYY","img_art/12.jpg","5","","","","","","","","","","","","","","","","","","","","","","","","",""
"null","","html-keyboard-response","94","545374","0.0-93.0","AMLZT92RF3MYY","<p style=""font-size: 48px;"">+</p>","","","","","null","allTrialResponses","1500","1","7","img_art/12.jpg","12","looks like a bunch of little windows, the various memories of a person","Brett,Daniel,William,Brendan,Garrett,Corey","Night and day, light and dark,35,360,20","Blocky windowed, safe and selfish,-41,320,20","to contemporary for me,3,380,20","wtf is that i dont get it,-50,340,20","This image doesn't have anything going on. The top half is really ugly, I kind of like the bottom a little.,-20,180,20","I like the bottom half and hate the top half,7,260,20","Brett","Night and day, light and dark,35,360,20","Daniel","Blocky windowed, safe and selfish,-41,320,20","Corey","I like the bottom half and hate the top half,7,260,20","2"
"14269","","survey-text","95","559646","0.0-94.0-0.0","AMLZT92RF3MYY","","","","{""Q0"":""the trees in this painting give me a sense of calming""}","","","","","","","","","","","","","","","","","","","","","","",""
"5772.900000095367","","image-slider-response","96","565419","0.0-95.0","AMLZT92RF3MYY","","","","","8","","","","","","","","","","","","","","","","","","","","","",""
"2405","","image-button-response","97","570421","0.0-96.0","AMLZT92RF3MYY","img_art/26.jpg","0","","","","","","","","","","","","","","","","","","","","","","","","",""
"1146","","image-button-response","98","571568","0.0-97.0","AMLZT92RF3MYY","img_art/26.jpg","0","","","","","","","","","","","","","","","","","","","","","","","","",""
"2131","","image-button-response","99","573700","0.0-98.0-0.0","AMLZT92RF3MYY","img_art/26.jpg","1","","","","","","","","","","","","","","","","","","","","","","","","",""
"1015","","image-button-response","100","574716","0.0-99.0-0.0","AMLZT92RF3MYY","img_art/26.jpg","4","","","","","","","","","","","","","","","","","","","","","","","","",""
"null","","html-keyboard-response","101","576217","0.0-100.0","AMLZT92RF3MYY","<p style=""font-size: 48px;"">+</p>","","","","","null","allTrialResponses","1500","1","8","img_art/26.jpg","8","the trees in this painting give me a sense of calming","Brett,Daniel,Gregory,Malik,Luke,Corey","Picturesque little town,45,360,20","Washed out suburban scene with childish tones.,-24,320,20","Street corner on a sunny day,5,220,20","Feels like still life,-13,40,20","makes me happy and reminds me of a paris courtyard,29,20,20","its boring and i dont like the color palette,3,260,20","Brett","Picturesque little town,45,360,20","Daniel","Washed out suburban scene with childish tones.,-24,320,20","Luke","makes me happy and reminds me of a paris courtyard,29,20,20","2"
"23084","","survey-text","102","599303","0.0-101.0-0.0","AMLZT92RF3MYY","","","","{""Q0"":""the red brush strokes have a very bold and ethereal feeling to me""}","","","","","","","","","","","","","","","","","","","","","","",""
"7359","","image-slider-response","103","606663","0.0-102.0","AMLZT92RF3MYY","","","","","14","","","","","","","","","","","","","","","","","","","","","",""
"null","","image-button-response","104","611666","0.0-103.0","AMLZT92RF3MYY","img_art/30.jpg","null","","","","","","","","","","","","","","","","","","","","","","","","",""
"1176","","image-button-response","105","612844","0.0-104.0","AMLZT92RF3MYY","img_art/30.jpg","3","","","","","","","","","","","","","","","","","","","","","","","","",""
"1029","","image-button-response","106","613873","0.0-105.0-0.0","AMLZT92RF3MYY","img_art/30.jpg","4","","","","","","","","","","","","","","","","","","","","","","","","",""
"929","","image-button-response","107","614803","0.0-106.0-0.0","AMLZT92RF3MYY","img_art/30.jpg","5","","","","","","","","","","","","","","","","","","","","","","","","",""
"null","","html-keyboard-response","108","615305","0.0-107.0","AMLZT92RF3MYY","<p style=""font-size: 48px;"">+</p>","","","","","null","allTrialResponses","500","1","9","img_art/30.jpg","14","the red brush strokes have a very bold and ethereal feeling to me","Brett,Daniel,Christopher,Jeremy,Luke,Spencer","I can't figure this out,25,360,20","10 year old 10 minute project ""Fun with Painting"",-42,320,20","looks simple, I can't see a lot of care going into this,-33,160,20","Happy. Makes me think of childhood finger painting,49,60,20","the lines and colors look purposeful,18,20,20","Interesting, almost an underworld of plant life,11,120,20","Jeremy","Happy. Makes me think of childhood finger painting,49,60,20","Luke","the lines and colors look purposeful,18,20,20","Spencer","Interesting, almost an underworld of plant life,11,120,20","2"
"13864","","survey-text","109","629171","0.0-108.0-0.0","AMLZT92RF3MYY","","","","{""Q0"":""the orange and yellow colors in this painting remind me of autumn""}","","","","","","","","","","","","","","","","","","","","","","",""
"2765.100000143051","","image-slider-response","110","631937","0.0-109.0","AMLZT92RF3MYY","","","","","15","","","","","","","","","","","","","","","","","","","","","",""
"2601","","image-button-response","111","636940","0.0-110.0","AMLZT92RF3MYY","img_art/27.jpg","0","","","","","","","","","","","","","","","","","","","","","","","","",""
"435","","image-button-response","112","637375","0.0-111.0","AMLZT92RF3MYY","img_art/27.jpg","0","","","","","","","","","","","","","","","","","","","","","","","","",""
"1389","","image-button-response","113","638765","0.0-112.0-0.0","AMLZT92RF3MYY","img_art/27.jpg","1","","","","","","","","","","","","","","","","","","","","","","","","",""
"2687","","image-button-response","114","641454","0.0-113.0-0.0","AMLZT92RF3MYY","img_art/27.jpg","0","","","","","","","","","","","","","","","","","","","","","","","","",""
"1639","","image-button-response","115","646672","0.0-113.1-0.1","AMLZT92RF3MYY","img_art/27.jpg","5","","","","","","","","","","","","","","","","","","","","","","","","",""
"null","","html-keyboard-response","116","647172","0.0-114.0","AMLZT92RF3MYY","<p style=""font-size: 48px;"">+</p>","","","","","null","allTrialResponses","500","1","10","img_art/27.jpg","15","the orange and yellow colors in this painting remind me of autumn","Logan,Samuel,Devin,Jeremy,Luke,Spencer","demon vs angel brawl over lemon lime sprite,-10,360,20","city at sunset brings happyness,10,400,20","Looks like the green bits were added on later,-1,380,20","Pleased. Reminds me of a child drawing,46,60,20","it looks very simple and childlike,-31,20,20","An attractive assortment of squiggles and colors,22,120,20","Logan","demon vs angel brawl over lemon lime sprite,-10,360,20","Samuel","city at sunset brings happyness,10,400,20","Spencer","An attractive assortment of squiggles and colors,22,120,20","4"
"2576","","survey-text","117","649751","0.0-115.0-0.0","AMLZT92RF3MYY","","","","{""Q0"":""our""}","","","","","","","","","","","","","","","","","","","","","","",""
"23629","","survey-text","118","673381","0.0-116.0-0.0","AMLZT92RF3MYY","","","","{""Q0"":""the linework in the upper portion of the images look like trees made out of smoke to me""}","","","","","","","","","","","","","","","","","","","","","","",""
"3217.100000143051","","image-slider-response","119","676599","0.0-117.0","AMLZT92RF3MYY","","","","","11","","","","","","","","","","","","","","","","","","","","","",""
"2891","","image-button-response","120","681601","0.0-118.0","AMLZT92RF3MYY","img_art/17.jpg","0","","","","","","","","","","","","","","","","","","","","","","","","",""
"532","","image-button-response","121","682133","0.0-119.0","AMLZT92RF3MYY","img_art/17.jpg","0","","","","","","","","","","","","","","","","","","","","","","","","",""
"1357","","image-button-response","122","683491","0.0-120.0-0.0","AMLZT92RF3MYY","img_art/17.jpg","1","","","","","","","","","","","","","","","","","","","","","","","","",""
"5483","","image-button-response","123","688976","0.0-121.0-0.0","AMLZT92RF3MYY","img_art/17.jpg","5","","","","","","","","","","","","","","","","","","","","","","","","",""
"null","","html-keyboard-response","124","689977","0.0-122.0","AMLZT92RF3MYY","<p style=""font-size: 48px;"">+</p>","","","","","null","allTrialResponses","1000","1","11","img_art/17.jpg","11","the linework in the upper portion of the images look like trees made out of smoke to me","Logan,Samuel,Austin,Timothy,Jose,Spencer","similar to last one, still pretty cool but I liked arrangement of last one better,13,360,20","muted tones brings me down,-13,400,20","Has a unique vibe to it,50,240,20","This feels like creativity and limitlessness,30,240,20","Looks like a weird blurry heaven again! I dig,32,200,20","Love the colors, the flow, like a strange storm or tree off the balcony,50,120,20","Logan","similar to last one, still pretty cool but I liked arrangement of last one better,13,360,20","Samuel","muted tones brings me down,-13,400,20","Spencer","Love the colors, the flow, like a strange storm or tree off the balcony,50,120,20","4"
"13208","","survey-text","125","703187","0.0-123.0-0.0","AMLZT92RF3MYY","","","","{""Q0"":""the muted undertones of this painting looks like a busy street corner to me""}","","","","","","","","","","","","","","","","","","","","","","",""
"4475.100000143051","","image-slider-response","126","707663","0.0-124.0","AMLZT92RF3MYY","","","","","24","","","","","","","","","","","","","","","","","","","","","",""
"1639","","image-button-response","127","712666","0.0-125.0","AMLZT92RF3MYY","img_art/11.jpg","0","","","","","","","","","","","","","","","","","","","","","","","","",""
"1755","","image-button-response","128","714421","0.0-126.0","AMLZT92RF3MYY","img_art/11.jpg","0","","","","","","","","","","","","","","","","","","","","","","","","",""
"711","","image-button-response","129","715133","0.0-127.0-0.0","AMLZT92RF3MYY","img_art/11.jpg","1","","","","","","","","","","","","","","","","","","","","","","","","",""
"1779","","image-button-response","130","716914","0.0-128.0-0.0","AMLZT92RF3MYY","img_art/11.jpg","4","","","","","","","","","","","","","","","","","","","","","","","","",""
"null","","html-keyboard-response","131","718414","0.0-129.0","AMLZT92RF3MYY","<p style=""font-size: 48px;"">+</p>","","","","","null","allTrialResponses","1500","1","12","img_art/11.jpg","24","the muted undertones of this painting looks like a busy street corner to me","Logan,Samuel,Jorge,Michael,Tyler,Spencer","life is a highway,12,360,20","business of traffic,10,400,20","Sad but hopeful,43,180,20","It's kind of cool and I see it looks clean.,22,140,20","Rainy day at an urban sea port. Portugal?,30,320,20","Even with the colors, it is dreary to me,-32,120,20","Logan","life is a highway,12,360,20","Samuel","business of traffic,10,400,20","Tyler","Rainy day at an urban sea port. Portugal?,30,320,20","4"
"29516","","survey-text","132","747933","0.0-130.0-0.0","AMLZT92RF3MYY","","","","{""Q0"":""i love the colors in this one. the splashes look like a jackson pollock painting to me""}","","","","","","","","","","","","","","","","","","","","","","",""
"4606.899999856949","","image-slider-response","133","752540","0.0-131.0","AMLZT92RF3MYY","","","","","31","","","","","","","","","","","","","","","","","","","","","",""
"4821","","image-button-response","134","757543","0.0-132.0","AMLZT92RF3MYY","img_art/13.jpg","2","","","","","","","","","","","","","","","","","","","","","","","","",""
"746","","image-button-response","135","758291","0.0-133.0","AMLZT92RF3MYY","img_art/13.jpg","2","","","","","","","","","","","","","","","","","","","","","","","","",""
"1665","","image-button-response","136","759957","0.0-134.0-0.0","AMLZT92RF3MYY","img_art/13.jpg","3","","","","","","","","","","","","","","","","","","","","","","","","",""
"2155","","image-button-response","137","762113","0.0-135.0-0.0","AMLZT92RF3MYY","img_art/13.jpg","4","","","","","","","","","","","","","","","","","","","","","","","","",""
"null","","html-keyboard-response","138","763115","0.0-136.0","AMLZT92RF3MYY","<p style=""font-size: 48px;"">+</p>","","","","","null","allTrialResponses","1000","1","13","img_art/13.jpg","31","i love the colors in this one. the splashes look like a jackson pollock painting to me","Logan,Samuel,Jack,Cole,Tyler,Kenneth","so simple and stupid this looks like what I did to my cousins wall when we repainted it for her 13th bday,0,360,20","eighties here we come,7,400,20","exciting & chaotic. love the colors.,50,320,20","The blue colors are very calming. Reminds me of water,33,200,20","Pollock? Love the juxtaposition of colors. Soothing and stirring, a beautiful inexplicable paradox.,50,320,20","I would hang this photo in my room.,21,300,20","Jack","exciting & chaotic. love the colors.,50,320,20","Cole","The blue colors are very calming. Reminds me of water,33,200,20","Tyler","Pollock? Love the juxtaposition of colors. Soothing and stirring, a beautiful inexplicable paradox.,50,320,20","4"
"34258","","survey-text","139","797376","0.0-137.0-0.0","AMLZT92RF3MYY","","","","{""Q0"":""looks like a tree made where the leaves are actually crows""}","","","","","","","","","","","","","","","","","","","","","","",""
"4337","","image-slider-response","140","801714","0.0-138.0","AMLZT92RF3MYY","","","","","0","","","","","","","","","","","","","","","","","","","","","",""
"null","","image-button-response","141","806716","0.0-139.0","AMLZT92RF3MYY","img_art/15.jpg","null","","","","","","","","","","","","","","","","","","","","","","","","",""
"487","","image-button-response","142","807204","0.0-140.0","AMLZT92RF3MYY","img_art/15.jpg","2","","","","","","","","","","","","","","","","","","","","","","","","",""
"2219","","image-button-response","143","809424","0.0-141.0-0.0","AMLZT92RF3MYY","img_art/15.jpg","3","","","","","","","","","","","","","","","","","","","","","","","","",""
"3412","","image-button-response","144","812838","0.0-142.0-0.0","AMLZT92RF3MYY","img_art/15.jpg","5","","","","","","","","","","","","","","","","","","","","","","","","",""
"null","","html-keyboard-response","145","813838","0.0-143.0","AMLZT92RF3MYY","<p style=""font-size: 48px;"">+</p>","","","","","null","allTrialResponses","1000","1","14","img_art/15.jpg","0","looks like a tree made where the leaves are actually crows","Joshua,Sean,Jack,Cole,Tyler,Alexander","Like this for the colors and arrangement.,11,240,20","my response to the picture is that I dont know what I am looking at,-25,40,20","interesting technique. the blue is very pretty,18,320,20","It reminds me of when you look up into a tree,21,200,20","I am starting to feel description fatigue. This would be pleasant enough in a doctor's office waiting room.,15,320,20","Leafs spread on the ground.,27,120,20","Jack","interesting technique. the blue is very pretty,18,320,20","Cole","It reminds me of when you look up into a tree,21,200,20","Alexander","Leafs spread on the ground.,27,120,20","4"
"33737","","survey-text","146","847577","0.0-144.0-0.0","AMLZT92RF3MYY","","","","{""Q0"":""this painting makes me question what is real, with the combination of linework and pieces that look more like photographs""}","","","","","","","","","","","","","","","","","","","","","","",""
"3585.0999999046326","","image-slider-response","147","851163","0.0-145.0","AMLZT92RF3MYY","","","","","-18","","","","","","","","","","","","","","","","","","","","","",""
"null","","image-button-response","148","856165","0.0-146.0","AMLZT92RF3MYY","img_art/16.jpg","null","","","","","","","","","","","","","","","","","","","","","","","","",""
"669","","image-button-response","149","856835","0.0-147.0","AMLZT92RF3MYY","img_art/16.jpg","1","","","","","","","","","","","","","","","","","","","","","","","","",""
"1891","","image-button-response","150","858728","0.0-148.0-0.0","AMLZT92RF3MYY","img_art/16.jpg","3","","","","","","","","","","","","","","","","","","","","","","","","",""
"1193","","image-button-response","151","859922","0.0-149.0-0.0","AMLZT92RF3MYY","img_art/16.jpg","4","","","","","","","","","","","","","","","","","","","","","","","","",""
"null","","html-keyboard-response","152","861423","0.0-150.0","AMLZT92RF3MYY","<p style=""font-size: 48px;"">+</p>","","","","","null","allTrialResponses","1500","1","15","img_art/16.jpg","-18","this painting makes me question what is real, with the combination of linework and pieces that look more like photographs","Antonio,John,Jack,Cole,Jake,Alexander","Did not like at all. I think something sinister going on in the background and the bear a diversion,-50,220,20","It creeps me out.,-50,120,20","very bizarre and confusing, but that feels purposeful, so i don't completely hate it.,-25,320,20","Weird mixed media piece,-50,200,20","This is creepy and puerile.,-45,360,20","Strange and bleak.,-20,120,20","John","It creeps me out.,-50,120,20","Cole","Weird mixed media piece,-50,200,20","Jake","This is creepy and puerile.,-45,360,20","4"
"4339","","survey-text","153","865765","0.0-151.0-0.0","AMLZT92RF3MYY","","","","{""Q0"":""course""}","","","","","","","","","","","","","","","","","","","","","","",""
"14293","","survey-text","154","880059","0.0-152.0-0.0","AMLZT92RF3MYY","","","","{""Q0"":""the colors in this painting feel very bland and washed out to me""}","","","","","","","","","","","","","","","","","","","","","","",""
"2825.2999999523163","","image-slider-response","155","882885","0.0-153.0","AMLZT92RF3MYY","","","","","-16","","","","","","","","","","","","","","","","","","","","","",""
"3039","","image-button-response","156","887886","0.0-154.0","AMLZT92RF3MYY","img_art/28.jpg","0","","","","","","","","","","","","","","","","","","","","","","","","",""
"154","","image-button-response","157","888041","0.0-155.0","AMLZT92RF3MYY","img_art/28.jpg","0","","","","","","","","","","","","","","","","","","","","","","","","",""
"2405","","image-button-response","158","890447","0.0-156.0-0.0","AMLZT92RF3MYY","img_art/28.jpg","2","","","","","","","","","","","","","","","","","","","","","","","","",""
"1195","","image-button-response","159","891644","0.0-157.0-0.0","AMLZT92RF3MYY","img_art/28.jpg","4","","","","","","","","","","","","","","","","","","","","","","","","",""
"null","","html-keyboard-response","160","893144","0.0-158.0","AMLZT92RF3MYY","<p style=""font-size: 48px;"">+</p>","","","","","null","allTrialResponses","1500","1","16","img_art/28.jpg","-16","the colors in this painting feel very bland and washed out to me","Alex,John,Gabriel,Cole,Jake,Dylan","This piece is depressing to me, reminds me of German paintings,-6,100,20","Not a fan of the bleak and dreary colors,-10,120,20","this one is rather disturbing,-22,160,20","Is this anything?,-20,200,20","This is very ugly with poor colors.,-23,360,20","Boring, looks like it belongs in a coffee shop,-20,40,20","Alex","This piece is depressing to me, reminds me of German paintings,-6,100,20","Gabriel","this one is rather disturbing,-22,160,20","Jake","This is very ugly with poor colors.,-23,360,20","4"
"30385","","survey-text","161","923531","0.0-159.0-0.0","AMLZT92RF3MYY","","","","{""Q0"":""this painting reminds me of the revolutionary period, i envision a ship sailing through the ocean""}","","","","","","","","","","","","","","","","","","","","","","",""
"3988.699999809265","","image-slider-response","162","927521","0.0-160.0","AMLZT92RF3MYY","","","","","7","","","","","","","","","","","","","","","","","","","","","",""
"3649","","image-button-response","163","932524","0.0-161.0","AMLZT92RF3MYY","img_art/21.jpg","1","","","","","","","","","","","","","","","","","","","","","","","","",""
"2497","","image-button-response","164","935021","0.0-162.0","AMLZT92RF3MYY","img_art/21.jpg","1","","","","","","","","","","","","","","","","","","","","","","","","",""
"477","","image-button-response","165","935499","0.0-163.0-0.0","AMLZT92RF3MYY","img_art/21.jpg","2","","","","","","","","","","","","","","","","","","","","","","","","",""
"755","","image-button-response","166","936256","0.0-164.0-0.0","AMLZT92RF3MYY","img_art/21.jpg","5","","","","","","","","","","","","","","","","","","","","","","","","",""
"null","","html-keyboard-response","167","937756","0.0-165.0","AMLZT92RF3MYY","<p style=""font-size: 48px;"">+</p>","","","","","null","allTrialResponses","1500","1","17","img_art/21.jpg","7","this painting reminds me of the revolutionary period, i envision a ship sailing through the ocean","Alex,Charles,Gabriel,Isaac,Jake,Lucas","The colors are very nice. I like the dots because they remind me of pearls,5,100,20","Another swathe of ocean,31,100,20","i like watercolor,22,160,20","I like the colors. It looks dramatic.,5,280,20","It looks epic and is nice to look at in terms of colors/style.,23,360,20","Looks like a war. Many things happening on the painting, really enjoy it.,30,380,20","Charles","Another swathe of ocean,31,100,20","Gabriel","i like watercolor,22,160,20","Lucas","Looks like a war. Many things happening on the painting, really enjoy it.,30,380,20","4"
"32556","","survey-text","168","970315","0.0-166.0-0.0","AMLZT92RF3MYY","","","","{""Q0"":""this painting looks like the sun is melting the earth and the vision of the viewer to me""}","","","","","","","","","","","","","","","","","","","","","","",""
"2563","","image-slider-response","169","972879","0.0-167.0","AMLZT92RF3MYY","","","","","15","","","","","","","","","","","","","","","","","","","","","",""
"null","","image-button-response","170","977881","0.0-168.0","AMLZT92RF3MYY","img_art/22.jpg","null","","","","","","","","","","","","","","","","","","","","","","","","",""
"2974","","image-button-response","171","980856","0.0-169.0","AMLZT92RF3MYY","img_art/22.jpg","0","","","","","","","","","","","","","","","","","","","","","","","","",""
"1810","","image-button-response","172","982668","0.0-170.0-0.0","AMLZT92RF3MYY","img_art/22.jpg","1","","","","","","","","","","","","","","","","","","","","","","","","",""
"4490","","image-button-response","173","987160","0.0-171.0-0.0","AMLZT92RF3MYY","img_art/22.jpg","4","","","","","","","","","","","","","","","","","","","","","","","","",""
"null","","html-keyboard-response","174","987661","0.0-172.0","AMLZT92RF3MYY","<p style=""font-size: 48px;"">+</p>","","","","","null","allTrialResponses","500","1","18","img_art/22.jpg","15","this painting looks like the sun is melting the earth and the vision of the viewer to me","Nathan,Charles,Gabriel,Taylor,Ethan,Lucas","A bit colorful, but slightly enjoyable, almost gives off castle/sunset vibes,10,200,20","I like the key near the sphere in the center,19,100,20","its messy, like a child painted it,-14,160,20","Looks like the kind of art I would see at the doctor's office.,-5,200,20","I do not like the color combo. This piece is too much the same throughout.,-1,120,20","Unfortunately, I can't see anything special in this painting.,-20,380,20","Nathan","A bit colorful, but slightly enjoyable, almost gives off castle/sunset vibes,10,200,20","Charles","I like the key near the sphere in the center,19,100,20","Ethan","I do not like the color combo. This piece is too much the same throughout.,-1,120,20","4"
"16800","","survey-text","175","1004463","0.0-173.0-0.0","AMLZT92RF3MYY","","","","{""Q0"":""this piece reminds me of music, the body of a guitar""}","","","","","","","","","","","","","","","","","","","","","","",""
"2483.300000190735","","image-slider-response","176","1006948","0.0-174.0","AMLZT92RF3MYY","","","","","17","","","","","","","","","","","","","","","","","","","","","",""
"2351","","image-button-response","177","1011950","0.0-175.0","AMLZT92RF3MYY","img_art/10.jpg","0","","","","","","","","","","","","","","","","","","","","","","","","",""
"1066","","image-button-response","178","1013018","0.0-176.0","AMLZT92RF3MYY","img_art/10.jpg","0","","","","","","","","","","","","","","","","","","","","","","","","",""
"851","","image-button-response","179","1013870","0.0-177.0-0.0","AMLZT92RF3MYY","img_art/10.jpg","2","","","","","","","","","","","","","","","","","","","","","","","","",""
"3617","","image-button-response","180","1017488","0.0-178.0-0.0","AMLZT92RF3MYY","img_art/10.jpg","4","","","","","","","","","","","","","","","","","","","","","","","","",""
"null","","html-keyboard-response","181","1018490","0.0-179.0","AMLZT92RF3MYY","<p style=""font-size: 48px;"">+</p>","","","","","null","allTrialResponses","1000","1","19","img_art/10.jpg","17","this piece reminds me of music, the body of a guitar","Nathan,Charles,Mark,Paul,Ethan,James","Seems very lovecraftian, which I love that style,25,200,20","Also too all over the place, I don't see any pattern or anything that's supposed to stand out,-19,100,20","Kraken, and I love it.,39,80,20","It doesn't look pleasing to the eye, it kind of looks like an animal but a dirty one,-38,300,20","The flow of lines is off. There are curvy and straight angry lines. It's not flattering at all.,-27,120,20","I have no opinions on this one,0,380,20","Nathan","Seems very lovecraftian, which I love that style,25,200,20","Mark","Kraken, and I love it.,39,80,20","Ethan","The flow of lines is off. There are curvy and straight angry lines. It's not flattering at all.,-27,120,20","4"
"19757","","survey-text","182","1038249","0.0-180.0-0.0","AMLZT92RF3MYY","","","","{""Q0"":""this reminds of a cactus plant growing out of a red pot in the desert""}","","","","","","","","","","","","","","","","","","","","","","",""
"2365","","image-slider-response","183","1040615","0.0-181.0","AMLZT92RF3MYY","","","","","13","","","","","","","","","","","","","","","","","","","","","",""
"3469","","image-button-response","184","1045616","0.0-182.0","AMLZT92RF3MYY","img_art/4.jpg","1","","","","","","","","","","","","","","","","","","","","","","","","",""
"624","","image-button-response","185","1046241","0.0-183.0","AMLZT92RF3MYY","img_art/4.jpg","1","","","","","","","","","","","","","","","","","","","","","","","","",""
"1663","","image-button-response","186","1047905","0.0-184.0-0.0","AMLZT92RF3MYY","img_art/4.jpg","2","","","","","","","","","","","","","","","","","","","","","","","","",""
"2813","","image-button-response","187","1050720","0.0-185.0-0.0","AMLZT92RF3MYY","img_art/4.jpg","3","","","","","","","","","","","","","","","","","","","","","","","","",""
"null","","html-keyboard-response","188","1051721","0.0-186.0","AMLZT92RF3MYY","<p style=""font-size: 48px;"">+</p>","","","","","null","allTrialResponses","1000","1","20","img_art/4.jpg","13","this reminds of a cactus plant growing out of a red pot in the desert","Nathan,Angel,Mark,Evan,Ethan,Brian","Not my preference when it comes to art styles or subjects,-10,200,20","I feel kind of guilty looking at this, like I'm receiving a reward I don't I deserve.,-10,180,20","I think it speaks to familial closeness but the tonality is offputting to me.,-10,80,20","I'm disappointed that such a simple piece, with very little effort spent, could be grouped with other detailed pieces,-31,140,20","This looks like a child got into his diaper.,-46,120,20","it reminds me of McDonalds, and not in a good way.,-34,380,20","Angel","I feel kind of guilty looking at this, like I'm receiving a reward I don't I deserve.,-10,180,20","Mark","I think it speaks to familial closeness but the tonality is offputting to me.,-10,80,20","Evan","I'm disappointed that such a simple piece, with very little effort spent, could be grouped with other detailed pieces,-31,140,20","4"
"2446","","survey-text","189","1054171","0.0-187.0-0.0","AMLZT92RF3MYY","","","","{""Q0"":""we""}","","","","","","","","","","","","","","","","","","","","","","",""
"15566","","survey-text","190","1069737","0.0-188.0-0.0","AMLZT92RF3MYY","","","","{""Q0"":""i love teh colors and what appears to be a ghostly apparitional figure in the center""}","","","","","","","","","","","","","","","","","","","","","","",""
"2281.2999999523163","","image-slider-response","191","1072019","0.0-189.0","AMLZT92RF3MYY","","","","","9","","","","","","","","","","","","","","","","","","","","","",""
"2467","","image-button-response","192","1077021","0.0-190.0","AMLZT92RF3MYY","img_art/18.jpg","0","","","","","","","","","","","","","","","","","","","","","","","","",""
"449","","image-button-response","193","1077471","0.0-191.0","AMLZT92RF3MYY","img_art/18.jpg","0","","","","","","","","","","","","","","","","","","","","","","","","",""
"921","","image-button-response","194","1078393","0.0-192.0-0.0","AMLZT92RF3MYY","img_art/18.jpg","1","","","","","","","","","","","","","","","","","","","","","","","","",""
"1359","","image-button-response","195","1079753","0.0-193.0-0.0","AMLZT92RF3MYY","img_art/18.jpg","2","","","","","","","","","","","","","","","","","","","","","","","","",""
"null","","html-keyboard-response","196","1080755","0.0-194.0","AMLZT92RF3MYY","<p style=""font-size: 48px;"">+</p>","","","","","null","allTrialResponses","1000","1","21","img_art/18.jpg","9","i love teh colors and what appears to be a ghostly apparitional figure in the center","Kevin,Angel,Mark,Evan,Joseph,Miguel","Pirate ship in stormy seas before it sank.,11,320,20","Like riding into battle. A sense of confidence, but also trepidation for what's coming. Could be a personification of death.,-10,180,20","I see an artistic representation of the riding of last of the four horseman. Its stunning.,45,80,20","This brings to mind the four horsemen of the apocalypse,8,140,20","It's like a ship, but a freaky ship.,-11,220,20","This looks amazing.,40,160,20","Kevin","Pirate ship in stormy seas before it sank.,11,320,20","Angel","Like riding into battle. A sense of confidence, but also trepidation for what's coming. Could be a personification of death.,-10,180,20","Mark","I see an artistic representation of the riding of last of the four horseman. Its stunning.,45,80,20","4"
"18749","","survey-text","197","1099507","0.0-195.0-0.0","AMLZT92RF3MYY","","","","{""Q0"":""i see a very abstract smiley face in the center of this painting, almost childlike feelings""}","","","","","","","","","","","","","","","","","","","","","","",""
"2802.9000000953674","","image-slider-response","198","1102311","0.0-196.0","AMLZT92RF3MYY","","","","","-11","","","","","","","","","","","","","","","","","","","","","",""
"4077","","image-button-response","199","1107312","0.0-197.0","AMLZT92RF3MYY","img_art/2.jpg","0","","","","","","","","","","","","","","","","","","","","","","","","",""
"380","","image-button-response","200","1107693","0.0-198.0","AMLZT92RF3MYY","img_art/2.jpg","0","","","","","","","","","","","","","","","","","","","","","","","","",""
"687","","image-button-response","201","1108381","0.0-199.0-0.0","AMLZT92RF3MYY","img_art/2.jpg","1","","","","","","","","","","","","","","","","","","","","","","","","",""
"2733","","image-button-response","202","1111115","0.0-200.0-0.0","AMLZT92RF3MYY","img_art/2.jpg","3","","","","","","","","","","","","","","","","","","","","","","","","",""
"null","","html-keyboard-response","203","1112117","0.0-201.0","AMLZT92RF3MYY","<p style=""font-size: 48px;"">+</p>","","","","","null","allTrialResponses","1000","1","22","img_art/2.jpg","-11","i see a very abstract smiley face in the center of this painting, almost childlike feelings","Kevin,Angel,Mark,Juan,Justin,Noah","That looks look a cartoon character of some kind.,11,320,20","I think I'm put off by the clashing colors here. It feels discombobulated and sick.,-10,180,20","It feels like a party and Moulin Rouge.,20,80,20","I don't like the abstract nature of this painting or the colors used.,-50,260,20","This one feels rather flat and not engaging.,-15,280,20","again, I struggle to see the art and I dislike the green in particular.,-31,260,20","Kevin","That looks look a cartoon character of some kind.,11,320,20","Angel","I think I'm put off by the clashing colors here. It feels discombobulated and sick.,-10,180,20","Juan","I don't like the abstract nature of this painting or the colors used.,-50,260,20","4"
"18848","","survey-text","204","1130967","0.0-202.0-0.0","AMLZT92RF3MYY","","","","{""Q0"":""looks like the grim reaper in a vat of acid to me""}","","","","","","","","","","","","","","","","","","","","","","",""
"2326.9000000953674","","image-slider-response","205","1133295","0.0-203.0","AMLZT92RF3MYY","","","","","11","","","","","","","","","","","","","","","","","","","","","",""
"4523","","image-button-response","206","1138297","0.0-204.0","AMLZT92RF3MYY","img_art/25.jpg","0","","","","","","","","","","","","","","","","","","","","","","","","",""
"1514","","image-button-response","207","1139811","0.0-205.0","AMLZT92RF3MYY","img_art/25.jpg","0","","","","","","","","","","","","","","","","","","","","","","","","",""
"3014","","image-button-response","208","1142825","0.0-206.0-0.0","AMLZT92RF3MYY","img_art/25.jpg","1","","","","","","","","","","","","","","","","","","","","","","","","",""
"3665","","image-button-response","209","1146491","0.0-207.0-0.0","AMLZT92RF3MYY","img_art/25.jpg","4","","","","","","","","","","","","","","","","","","","","","","","","",""
"null","","html-keyboard-response","210","1146992","0.0-208.0","AMLZT92RF3MYY","<p style=""font-size: 48px;"">+</p>","","","","","null","allTrialResponses","500","1","23","img_art/25.jpg","11","looks like the grim reaper in a vat of acid to me","Kevin,Angel,Shawn,Juan,Alejandro,Jonathan","That on i find a bit creapy.,-19,320,20","I feel uneasy. Like watching someone powerful ready to perform a ritual, but I don't know their intentions.,-10,180,20","Cheesy and unprofessional,-30,100,20","I don't like the color. I don't like the abstract-ness of it.,-22,260,20","Seems ritualistic and nativist,50,80,20","This painting is cool but it gives off an evil vibe,-10,140,20","Kevin","That on i find a bit creapy.,-19,320,20","Angel","I feel uneasy. Like watching someone powerful ready to perform a ritual, but I don't know their intentions.,-10,180,20","Alejandro","Seems ritualistic and nativist,50,80,20","4"
"37547","","survey-text","211","1184541","0.0-209.0-0.0","AMLZT92RF3MYY","","","","{""Q0"":""this painting reminds me of human nature, with the soul spirit of a tribe emanating into thousands of colorful dots""}","","","","","","","","","","","","","","","","","","","","","","",""
"2435.0999999046326","","image-slider-response","212","1186977","0.0-210.0","AMLZT92RF3MYY","","","","","20","","","","","","","","","","","","","","","","","","","","","",""
"2921","","image-button-response","213","1191978","0.0-211.0","AMLZT92RF3MYY","img_art/23.jpg","1","","","","","","","","","","","","","","","","","","","","","","","","",""
"608","","image-button-response","214","1192587","0.0-212.0","AMLZT92RF3MYY","img_art/23.jpg","1","","","","","","","","","","","","","","","","","","","","","","","","",""
"905","","image-button-response","215","1193494","0.0-213.0-0.0","AMLZT92RF3MYY","img_art/23.jpg","2","","","","","","","","","","","","","","","","","","","","","","","","",""
"1818","","image-button-response","216","1195314","0.0-214.0-0.0","AMLZT92RF3MYY","img_art/23.jpg","4","","","","","","","","","","","","","","","","","","","","","","","","",""
"null","","html-keyboard-response","217","1196315","0.0-215.0","AMLZT92RF3MYY","<p style=""font-size: 48px;"">+</p>","","","","","null","allTrialResponses","1000","1","24","img_art/23.jpg","20","this painting reminds me of human nature, with the soul spirit of a tribe emanating into thousands of colorful dots","Kevin,Angel,Robert,Tanner,Alejandro,Adam","Looks like fish fossils,12,320,20","I feel positive community and comfort. Singing along at a concert, united with a bunch of strangers through shared joy.,20,180,20","This makes me think of an orchestra playing a forth of july song,12,360,20","fsiries, happy, spiritual,16,180,20","I love the funky colors accompanied by perhaps dancing silhouettes. I love the white against the chaotic surroundings.,50,80,20","I like the color contrast, though I'm unable to tell what the white shapes are.,25,40,20","Angel","I feel positive community and comfort. Singing along at a concert, united with a bunch of strangers through shared joy.,20,180,20","Robert","This makes me think of an orchestra playing a forth of july song,12,360,20","Alejandro","I love the funky colors accompanied by perhaps dancing silhouettes. I love the white against the chaotic surroundings.,50,80,20","4"
"25999","","survey-text","218","1222317","0.0-216.0-0.0","AMLZT92RF3MYY","","","","{""Q0"":""this painting gives me chaotic feelings with the splashes of red and yellow color""}","","","","","","","","","","","","","","","","","","","","","","",""
"2241","","image-slider-response","219","1224559","0.0-217.0","AMLZT92RF3MYY","","","","","-8","","","","","","","","","","","","","","","","","","","","","",""
"4193","","image-button-response","220","1229560","0.0-218.0","AMLZT92RF3MYY","img_art/1.jpg","0","","","","","","","","","","","","","","","","","","","","","","","","",""
"551","","image-button-response","221","1230113","0.0-219.0","AMLZT92RF3MYY","img_art/1.jpg","0","","","","","","","","","","","","","","","","","","","","","","","","",""
"593","","image-button-response","222","1230707","0.0-220.0-0.0","AMLZT92RF3MYY","img_art/1.jpg","1","","","","","","","","","","","","","","","","","","","","","","","","",""
"2708","","image-button-response","223","1233417","0.0-221.0-0.0","AMLZT92RF3MYY","img_art/1.jpg","3","","","","","","","","","","","","","","","","","","","","","","","","",""
"null","","html-keyboard-response","224","1233918","0.0-222.0","AMLZT92RF3MYY","<p style=""font-size: 48px;"">+</p>","","","","","null","allTrialResponses","500","1","25","img_art/1.jpg","-8","this painting gives me chaotic feelings with the splashes of red and yellow color","Travis,Angel,Robert,Tristan,Alejandro,Edward","I didn't like this too much...I didn't like the red and the jaggedness to it.,-29,260,20","For some reason this makes me want to go ice skating. It's whimsical and free but also very smooth.,20,180,20","Pretty colors. Fall day in the East Coast of USA.,42,360,20","Unpleasing palette. I see a figure but it seems incongrous to the highly abstract background.,-20,300,20","Interesting color scheme but to bled to me,11,80,20","That one piece in the middle gives it depth and it's really neat,21,60,20","Travis","I didn't like this too much...I didn't like the red and the jaggedness to it.,-29,260,20","Angel","For some reason this makes me want to go ice skating. It's whimsical and free but also very smooth.,20,180,20","Tristan","Unpleasing palette. I see a figure but it seems incongrous to the highly abstract background.,-20,300,20","4"
"2870","","survey-text","225","1236793","0.0-223.0-0.0","AMLZT92RF3MYY","","","","{""Q0"":""table""}","","","","","","","","","","","","","","","","","","","","","","",""
"21349","","survey-text","226","1258142","0.0-224.0-0.0","AMLZT92RF3MYY","","","","{""Q0"":""this painting reminds me of disapproval, with what looks like a good painting crossed over with a red x at the end""}","","","","","","","","","","","","","","","","","","","","","","",""
"2637.2000000476837","","image-slider-response","227","1260781","0.0-225.0","AMLZT92RF3MYY","","","","","22","","","","","","","","","","","","","","","","","","","","","",""
"4282","","image-button-response","228","1265783","0.0-226.0","AMLZT92RF3MYY","img_art/29.jpg","1","","","","","","","","","","","","","","","","","","","","","","","","",""
"608","","image-button-response","229","1266391","0.0-227.0","AMLZT92RF3MYY","img_art/29.jpg","1","","","","","","","","","","","","","","","","","","","","","","","","",""
"1709","","image-button-response","230","1268101","0.0-228.0-0.0","AMLZT92RF3MYY","img_art/29.jpg","3","","","","","","","","","","","","","","","","","","","","","","","","",""
"2837","","image-button-response","231","1270939","0.0-229.0-0.0","AMLZT92RF3MYY","img_art/29.jpg","5","","","","","","","","","","","","","","","","","","","","","","","","",""
"null","","html-keyboard-response","232","1272442","0.0-230.0","AMLZT92RF3MYY","<p style=""font-size: 48px;"">+</p>","","","","","null","allTrialResponses","1500","1","26","img_art/29.jpg","22","this painting reminds me of disapproval, with what looks like a good painting crossed over with a red x at the end","Travis,Angel,Ian,Tristan,Richard,Stephen","Neural...just a blackboard jungle.,3,260,20","This piece feels gross. Makes me think of pollution/litter strewn across a dirty street.,-20,180,20","This feels chaotic and I like the energy that it gives off.,21,260,20","The textures bring this painting alive. A window to another existence with infinite possibility.,25,300,20","it's OK, no clue to what's going on but good use of light and dark,4,340,20","Really enjoy everything about this one.,50,140,20","Angel","This piece feels gross. Makes me think of pollution/litter strewn across a dirty street.,-20,180,20","Tristan","The textures bring this painting alive. A window to another existence with infinite possibility.,25,300,20","Stephen","Really enjoy everything about this one.,50,140,20","4"
"23020","","survey-text","233","1295465","0.0-231.0-0.0","AMLZT92RF3MYY","","","","{""Q0"":""this painting gives me an uneasy feeling, and looks like blood spatter on a door to me""}","","","","","","","","","","","","","","","","","","","","","","",""
"4749","","image-slider-response","234","1300215","0.0-232.0","AMLZT92RF3MYY","","","","","12","","","","","","","","","","","","","","","","","","","","","",""
"null","","image-button-response","235","1305217","0.0-233.0","AMLZT92RF3MYY","img_art/3.jpg","null","","","","","","","","","","","","","","","","","","","","","","","","",""
"562","","image-button-response","236","1305779","0.0-234.0","AMLZT92RF3MYY","img_art/3.jpg","0","","","","","","","","","","","","","","","","","","","","","","","","",""
"1241","","image-button-response","237","1307021","0.0-235.0-0.0","AMLZT92RF3MYY","img_art/3.jpg","1","","","","","","","","","","","","","","","","","","","","","","","","",""
"1741","","image-button-response","238","1308763","0.0-236.0-0.0","AMLZT92RF3MYY","img_art/3.jpg","3","","","","","","","","","","","","","","","","","","","","","","","","",""
"null","","html-keyboard-response","239","1309266","0.0-237.0","AMLZT92RF3MYY","<p style=""font-size: 48px;"">+</p>","","","","","null","allTrialResponses","500","1","27","img_art/3.jpg","12","this painting gives me an uneasy feeling, and looks like blood spatter on a door to me","Carlos,Angel,Jordan,Tristan,Chase,Stephen","The composition keeps the eye moving, the colors are satisfying.,31,80,20","This gives me a negative feeling, like someone trying to scratch out their flaws. I see low self-esteem.,-20,180,20","Reminded me of blood or something bad,-21,160,20","i like the colors particulairly the contrast of foreground to background. Exciting and thoughtful.,10,300,20","Looks like a bloody head with teeth.,-16,120,20","Don't see what the purpose is.,-31,140,20","Carlos","The composition keeps the eye moving, the colors are satisfying.,31,80,20","Angel","This gives me a negative feeling, like someone trying to scratch out their flaws. I see low self-esteem.,-20,180,20","Tristan","i like the colors particulairly the contrast of foreground to background. Exciting and thoughtful.,10,300,20","4"
"18300","","survey-text","240","1327569","0.0-238.0-0.0","AMLZT92RF3MYY","","","","{""Q0"":""i feel very calm and serene and get the impression of a stream flowing through a mountain valley""}","","","","","","","","","","","","","","","","","","","","","","",""
"3290.9000000953674","","image-slider-response","241","1330860","0.0-239.0","AMLZT92RF3MYY","","","","","27","","","","","","","","","","","","","","","","","","","","","",""
"null","","image-button-response","242","1335862","0.0-240.0","AMLZT92RF3MYY","img_art/24.jpg","null","","","","","","","","","","","","","","","","","","","","","","","","",""
"711","","image-button-response","243","1336575","0.0-241.0","AMLZT92RF3MYY","img_art/24.jpg","1","","","","","","","","","","","","","","","","","","","","","","","","",""
"3999","","image-button-response","244","1340575","0.0-242.0-0.0","AMLZT92RF3MYY","img_art/24.jpg","3","","","","","","","","","","","","","","","","","","","","","","","","",""
"421","","image-button-response","245","1340997","0.0-243.0-0.0","AMLZT92RF3MYY","img_art/24.jpg","4","","","","","","","","","","","","","","","","","","","","","","","","",""
"null","","html-keyboard-response","246","1342498","0.0-244.0","AMLZT92RF3MYY","<p style=""font-size: 48px;"">+</p>","","","","","null","allTrialResponses","1500","1","28","img_art/24.jpg","27","i feel very calm and serene and get the impression of a stream flowing through a mountain valley","Carlos,Angel,Christian,Tristan,Eric,Hunter","It is like a really bad impressionist painting.,-40,80,20","This is clear and healthy. It makes me think of unspoiled nature.,20,180,20","organized mess at first glance, would love to inspect this in closer proximity,39,140,20","The contorted angles of the flowing water upset the harmony,-20,300,20","I'm reminded of a waterfall, but I feel like it could've been better portrayed.,5,100,20","feels overdone, but still executed well,0,240,20","Angel","This is clear and healthy. It makes me think of unspoiled nature.,20,180,20","Tristan","The contorted angles of the flowing water upset the harmony,-20,300,20","Eric","I'm reminded of a waterfall, but I feel like it could've been better portrayed.,5,100,20","4"
"14155","","survey-text","247","1356656","0.0-245.0-0.0","AMLZT92RF3MYY","","","","{""Q0"":""this painting makes me feel barren and empty, reminds me of a desert""}","","","","","","","","","","","","","","","","","","","","","","",""
"3889.2000000476837","","image-slider-response","248","1360546","0.0-246.0","AMLZT92RF3MYY","","","","","14","","","","","","","","","","","","","","","","","","","","","",""
"2513","","image-button-response","249","1365561","0.0-247.0","AMLZT92RF3MYY","img_art/7.jpg","1","","","","","","","","","","","","","","","","","","","","","","","","",""
"991","","image-button-response","250","1366553","0.0-248.0","AMLZT92RF3MYY","img_art/7.jpg","1","","","","","","","","","","","","","","","","","","","","","","","","",""
"751","","image-button-response","251","1367305","0.0-249.0-0.0","AMLZT92RF3MYY","img_art/7.jpg","2","","","","","","","","","","","","","","","","","","","","","","","","",""
"749","","image-button-response","252","1368055","0.0-250.0-0.0","AMLZT92RF3MYY","img_art/7.jpg","3","","","","","","","","","","","","","","","","","","","","","","","","",""
"null","","html-keyboard-response","253","1369556","0.0-251.0","AMLZT92RF3MYY","<p style=""font-size: 48px;"">+</p>","","","","","null","allTrialResponses","1500","1","29","img_art/7.jpg","14","this painting makes me feel barren and empty, reminds me of a desert","Elijah,Angel,Jacob,Tristan,Eric,Ryan","Not highly impressed,-5,80,20","It's off-putting because it reminds me of walking over rough sand/rocks or having scabs on my skin.,-10,180,20","Looks like a natural texture, reminds me of rocks.,0,340,20","Limited emotional reaction for me. No focus and highly abstract,-20,300,20","This piece is really simple but the colors and texture work well together.,20,100,20","I hate everything about this painting from the cors to it looking like a war,-50,380,20","Angel","It's off-putting because it reminds me of walking over rough sand/rocks or having scabs on my skin.,-10,180,20","Jacob","Looks like a natural texture, reminds me of rocks.,0,340,20","Tristan","Limited emotional reaction for me. No focus and highly abstract,-20,300,20","4"
"19526","","survey-text","254","1389085","0.0-252.0-0.0","AMLZT92RF3MYY","","","","{""Q0"":""this painting makes me feel lonely, i see a crow standing on top of a desert""}","","","","","","","","","","","","","","","","","","","","","","",""
"2625.100000143051","","image-slider-response","255","1391711","0.0-253.0","AMLZT92RF3MYY","","","","","-11","","","","","","","","","","","","","","","","","","","","","",""
"4247","","image-button-response","256","1396712","0.0-254.0","AMLZT92RF3MYY","img_art/6.jpg","0","","","","","","","","","","","","","","","","","","","","","","","","",""
"528","","image-button-response","257","1397241","0.0-255.0","AMLZT92RF3MYY","img_art/6.jpg","0","","","","","","","","","","","","","","","","","","","","","","","","",""
"623","","image-button-response","258","1397865","0.0-256.0-0.0","AMLZT92RF3MYY","img_art/6.jpg","1","","","","","","","","","","","","","","","","","","","","","","","","",""
"1211","","image-button-response","259","1399077","0.0-257.0-0.0","AMLZT92RF3MYY","img_art/6.jpg","3","","","","","","","","","","","","","","","","","","","","","","","","",""
"null","","html-keyboard-response","260","1400578","0.0-258.0","AMLZT92RF3MYY","<p style=""font-size: 48px;"">+</p>","","","","","null","allTrialResponses","1500","1","30","img_art/6.jpg","-11","this painting makes me feel lonely, i see a crow standing on top of a desert","Derek,Angel,Jacob,Tristan,Seth,Caleb","Too basic for me,-20,360,20","This piece feels hopeful, like an oasis in the desert.,20,180,20","Is this a leaf?,4,340,20","Lack of context makes this painting 1-d for me. The headless bird is mysterious and indecipherable.,-10,300,20","I love it. It reminds me of a bird sitting on a wall.,26,60,20","Despite how simple it is, this piece has clear meaning.,34,40,20","Derek","Too basic for me,-20,360,20","Angel","This piece feels hopeful, like an oasis in the desert.,20,180,20","Tristan","Lack of context makes this painting 1-d for me. The headless bird is mysterious and indecipherable.,-10,300,20","4"
"5520","","image-button-response_instructions","261","1406101","0.0-259.0","AMLZT92RF3MYY","","0","instructions","","","","","","","","","","","","","","","","","","","","","","","",""
"1285","","image-button-response","262","1407389","0.0-260.0","AMLZT92RF3MYY","","0","","","","","","","","","","","","","","","","","","","","","","","","",""
