"rt","url","trial_type","trial_index","time_elapsed","internal_node_id","participant_id","stimulus","button_pressed","Name","responses","response","key_press","variableName","fixationTime","condition","trial","photo","subjectRating","subjectResponse","agentsNames","agent_1_Response","agent_2_Response","agent_3_Response","agent_4_Response","agent_5_Response","agent_6_Response","kept_1_name","kept_1_response","kept_2_name","kept_2_response","kept_3_name","kept_3_response","errorCounter"
"78853","external_page_harvard.html","external-html","0","78945","0.0-0.0","AMVBT3XDCQBHI","","","","","","","","","","","","","","","","","","","","","","","","","","",""
"3833","","image-button-response","1","82781","0.0-1.0","AMVBT3XDCQBHI","","0","","","","","","","","","","","","","","","","","","","","","","","","",""
"6063","","image-button-response","2","88852","0.0-2.0-0.0","AMVBT3XDCQBHI","","1","phone","","","","","","","","","","","","","","","","","","","","","","","",""
"9723","","survey-text","3","98577","0.0-3.0-0.0","AMVBT3XDCQBHI","","","","{""Q0"":""AMVBT3XDCQBHI""}","","","","","","","","","","","","","","","","","","","","","","",""
"6423","","image-button-response_instructions","4","105002","0.0-4.0","AMVBT3XDCQBHI","","0","instructions","","","","","","","","","","","","","","","","","","","","","","","",""
"40901","","image-button-response_instructions","5","145905","0.0-5.0","AMVBT3XDCQBHI","img_art/ins/popularity/ins1.png","0","instructions","","","","","","","","","","","","","","","","","","","","","","","",""
"18520","","image-button-response_instructions","6","164426","0.0-6.0","AMVBT3XDCQBHI","img_art/ins/popularity/ins2.png","0","instructions","","","","","","","","","","","","","","","","","","","","","","","",""
"13935","","image-button-response_instructions","7","178362","0.0-7.0","AMVBT3XDCQBHI","img_art/ins/popularity/ins2Extreme.png","0","instructions","","","","","","","","","","","","","","","","","","","","","","","",""
"32424","","image-button-response_instructions","8","210788","0.0-8.0","AMVBT3XDCQBHI","img_art/ins/popularity/ins3KEEPpop.PNG","0","instructions","","","","","","","","","","","","","","","","","","","","","","","",""
"6452","","image-button-response_instructions","9","217241","0.0-9.0","AMVBT3XDCQBHI","img_art/ins/popularity/ins3ANamepop.PNG","0","instructions","","","","","","","","","","","","","","","","","","","","","","","",""
"6413","","image-button-response_instructions","10","223655","0.0-10.0","AMVBT3XDCQBHI","img_art/ins/popularity/ins3ARatingpop.png","0","instructions","","","","","","","","","","","","","","","","","","","","","","","",""
"7264","","image-button-response_instructions","11","230921","0.0-11.0","AMVBT3XDCQBHI","img_art/ins/popularity/ins3ATextpop.png","0","instructions","","","","","","","","","","","","","","","","","","","","","","","",""
"15270","","image-button-response_instructions","12","246193","0.0-12.0","AMVBT3XDCQBHI","img_art/ins/popularity/ins3ALikespop.png","0","instructions","","","","","","","","","","","","","","","","","","","","","","","",""
"15481","","image-button-response_instructions","13","261676","0.0-13.0","AMVBT3XDCQBHI","img_art/ins/popularity/ins3KEEPpop.PNG","0","instructions","","","","","","","","","","","","","","","","","","","","","","","",""
"19060","","image-button-response_instructions","14","280737","0.0-14.0","AMVBT3XDCQBHI","img_art/ins/popularity/ins3_5RED.png","0","instructions","","","","","","","","","","","","","","","","","","","","","","","",""
"9832","","image-button-response_instructions","15","290571","0.0-15.0","AMVBT3XDCQBHI","img_art/ins/popularity/ins3KEEPpop.PNG","0","instructions","","","","","","","","","","","","","","","","","","","","","","","",""
"16464","","image-button-response_instructions","16","307037","0.0-16.0","AMVBT3XDCQBHI","img_art/ins/popularity/ins4KEEPpop.PNG","0","instructions","","","","","","","","","","","","","","","","","","","","","","","",""
"6511","","image-button-response_instructions","17","313549","0.0-17.0","AMVBT3XDCQBHI","img_art/ins/popularity/ins5KEEPpop.PNG","0","instructions","","","","","","","","","","","","","","","","","","","","","","","",""
"3123","","image-button-response_instructions","18","316673","0.0-18.0","AMVBT3XDCQBHI","","0","instructions","","","","","","","","","","","","","","","","","","","","","","","",""
"11510","","survey-text","19","328218","0.0-19.0-0.0","AMVBT3XDCQBHI","","","","{""Q0"":""but""}","","","","","","","","","","","","","","","","","","","","","","",""
"11632","","survey-text","20","339853","0.0-20.0-0.0","AMVBT3XDCQBHI","","","","{""Q0"":""waves""}","","","","","","","","","","","","","","","","","","","","","","",""
"20869","","survey-text","21","365424","0.0-20.1-0.1","AMVBT3XDCQBHI","","","","{""Q0"":""feeling of waves""}","","","","","","","","","","","","","","","","","","","","","","",""
"11279.799999982119","","image-slider-response","22","376707","0.0-21.0","AMVBT3XDCQBHI","","","","","16","","","","","","","","","","","","","","","","","","","","","",""
"null","","image-button-response","23","381713","0.0-22.0","AMVBT3XDCQBHI","img_art/ins/1.jpg","null","","","","","","","","","","","","","","","","","","","","","","","","",""
"7956","","image-button-response","24","389673","0.0-23.0","AMVBT3XDCQBHI","img_art/ins/1.jpg","3","","","","","","","","","","","","","","","","","","","","","","","","",""
"12938","","image-button-response","25","402614","0.0-24.0-0.0","AMVBT3XDCQBHI","img_art/ins/1.jpg","1","","","","","","","","","","","","","","","","","","","","","","","","",""
"8113","","image-button-response","26","410733","0.0-25.0-0.0","AMVBT3XDCQBHI","img_art/ins/1.jpg","5","","","","","","","","","","","","","","","","","","","","","","","","",""
"null","","html-keyboard-response","27","411252","0.0-26.0","AMVBT3XDCQBHI","<p style=""font-size: 48px;"">+</p>","","","","","null","allTrialResponses","500","1","-2","img_art/ins/1.jpg","16","feeling of waves","Adam,Alex,Ben,Carl,Daniel,Jack","Seems like doodles,-20,20,20","very creative work.,36,40,20","This color reminds me of poo,-46,60,20","very calming artwork,42,80,20","It looks like a murder scene.,-48,100,20","I like the sophisticated brushwork,40,120,20","Carl","very calming artwork,42,80,20","Alex","very creative work.,36,40,20","Jack","I like the sophisticated brushwork,40,120,20","0"
"15685","","survey-text","28","426955","0.0-27.0-0.0","AMVBT3XDCQBHI","","","","{""Q0"":""wicked loud""}","","","","","","","","","","","","","","","","","","","","","","",""
"13736.199999988079","","image-slider-response","29","440694","0.0-28.0","AMVBT3XDCQBHI","","","","","-28","","","","","","","","","","","","","","","","","","","","","",""
"4972","","image-button-response","30","445698","0.0-29.0","AMVBT3XDCQBHI","img_art/ins/2.jpg","0","","","","","","","","","","","","","","","","","","","","","","","","",""
"13351","","image-button-response","31","459052","0.0-30.0","AMVBT3XDCQBHI","img_art/ins/2.jpg","2","","","","","","","","","","","","","","","","","","","","","","","","",""
"1397","","image-button-response","32","460452","0.0-31.0-0.0","AMVBT3XDCQBHI","img_art/ins/2.jpg","0","","","","","","","","","","","","","","","","","","","","","","","","",""
"2435","","image-button-response","33","462890","0.0-32.0-0.0","AMVBT3XDCQBHI","img_art/ins/2.jpg","0","","","","","","","","","","","","","","","","","","","","","","","","",""
"9941","","image-button-response","34","479817","0.0-32.1-0.1","AMVBT3XDCQBHI","img_art/ins/2.jpg","3","","","","","","","","","","","","","","","","","","","","","","","","",""
"null","","html-keyboard-response","35","480821","0.0-33.0","AMVBT3XDCQBHI","<p style=""font-size: 48px;"">+</p>","","","","","null","allTrialResponses","1000","1","-1","img_art/ins/2.jpg","-28","wicked loud","James,Alex,Kyle,Carl,John,Jack","looks too angry,-50,140,20","I like the blocks of color arrangements,30,40,20","Idk, it is just annoying,-32,180,20","I can feel the artist's passion in it,45,80,20","love the texture of paint,48,160,20","I would never be able to compose a sophisticated pallete like this,48,120,20","Kyle","Idk, it is just annoying,-32,180,20","James","looks too angry,-50,140,20","Carl","I can feel the artist's passion in it,45,80,20","2"
"11252","","survey-text","36","492086","0.0-34.0-0.0","AMVBT3XDCQBHI","","","","{""Q0"":""faint""}","","","","","","","","","","","","","","","","","","","","","","",""
"35205","","survey-text","37","530320","0.0-34.1-0.1","AMVBT3XDCQBHI","","","","{""Q0"":""low to high""}","","","","","","","","","","","","","","","","","","","","","","",""
"8664.799999982119","","image-slider-response","38","538987","0.0-35.0","AMVBT3XDCQBHI","","","","","-9","","","","","","","","","","","","","","","","","","","","","",""
"null","","image-button-response","39","543995","0.0-36.0","AMVBT3XDCQBHI","img_art/ins/3.jpg","null","","","","","","","","","","","","","","","","","","","","","","","","",""
"12098","","image-button-response","40","556097","0.0-37.0","AMVBT3XDCQBHI","img_art/ins/3.jpg","3","","","","","","","","","","","","","","","","","","","","","","","","",""
"4865","","image-button-response","41","560965","0.0-38.0-0.0","AMVBT3XDCQBHI","img_art/ins/3.jpg","5","","","","","","","","","","","","","","","","","","","","","","","","",""
"3943","","image-button-response","42","564911","0.0-39.0-0.0","AMVBT3XDCQBHI","img_art/ins/3.jpg","1","","","","","","","","","","","","","","","","","","","","","","","","",""
"null","","html-keyboard-response","43","565914","0.0-40.0","AMVBT3XDCQBHI","<p style=""font-size: 48px;"">+</p>","","","","","null","allTrialResponses","1000","1","0","img_art/ins/3.jpg","-9","low to high","James,Mike,Kyle,Carl,Ron,Sam","My worst nightmare,-42,140,20","enjoy the different shades of blue,22,200,20","It looks like a playground for bats,-36,180,20","It's an alright work,15,80,20","It looks depressing,-26,220,20","I can feel a rainy day from this painting,18,240,20","Carl","It's an alright work,15,80,20","Sam","I can feel a rainy day from this painting,18,240,20","Mike","enjoy the different shades of blue,22,200,20","2"
"9748","","image-button-response_instructions","44","575672","0.0-41.0","AMVBT3XDCQBHI","","0","instructions","","","","","","","","","","","","","","","","","","","","","","","",""
"26260","","survey-likert","45","601935","0.0-42.0-0.0","AMVBT3XDCQBHI","","","","{""Q0"":"""",""Q1"":0,""Q2"":1}","","","","","","","","","","","","","","","","","","","","","","",""
"7620","","survey-text","46","609562","0.0-43.0-0.0","AMVBT3XDCQBHI","","","","{""Q0"":""rock""}","","","","","","","","","","","","","","","","","","","","","","",""
"14849","","survey-text","47","624413","0.0-44.0-0.0","AMVBT3XDCQBHI","","","","{""Q0"":""pretzel""}","","","","","","","","","","","","","","","","","","","","","","",""
"8605.799999982119","","image-slider-response","48","633022","0.0-45.0","AMVBT3XDCQBHI","","","","","-37","","","","","","","","","","","","","","","","","","","","","",""
"null","","image-button-response","49","638066","0.0-46.0","AMVBT3XDCQBHI","img_art/4.jpg","null","","","","","","","","","","","","","","","","","","","","","","","","",""
"2864","","image-button-response","50","640934","0.0-47.0","AMVBT3XDCQBHI","img_art/4.jpg","4","","","","","","","","","","","","","","","","","","","","","","","","",""
"23838","","image-button-response","51","664776","0.0-48.0-0.0","AMVBT3XDCQBHI","img_art/4.jpg","2","","","","","","","","","","","","","","","","","","","","","","","","",""
"4128","","image-button-response","52","668907","0.0-49.0-0.0","AMVBT3XDCQBHI","img_art/4.jpg","1","","","","","","","","","","","","","","","","","","","","","","","","",""
"null","","html-keyboard-response","53","670411","0.0-50.0","AMVBT3XDCQBHI","<p style=""font-size: 48px;"">+</p>","","","","","null","allTrialResponses","1500","1","1","img_art/4.jpg","-37","pretzel","Cody,Timothy,Taylor,Dalton,Ryan,Angel","Interesting but maybe a little creepy,0,180,20","The colors feel a bit off to me,-10,240,20","They give out trophies now for fighting with brass knuckles?,-20,200,20","looks like an award from an award show.,22,300,20","Looks like an abstract version of the Scream painting,-50,380,20","I feel kind of guilty looking at this, like I'm receiving a reward I don't I deserve.,-10,180,20","Ryan","Looks like an abstract version of the Scream painting,-50,380,20","Taylor","They give out trophies now for fighting with brass knuckles?,-20,200,20","Timothy","The colors feel a bit off to me,-10,240,20","2"
"11019","","survey-text","54","681442","0.0-51.0-0.0","AMVBT3XDCQBHI","","","","{""Q0"":""indifferent""}","","","","","","","","","","","","","","","","","","","","","","",""
"5022.300000011921","","image-slider-response","55","686466","0.0-52.0","AMVBT3XDCQBHI","","","","","-32","","","","","","","","","","","","","","","","","","","","","",""
"null","","image-button-response","56","691470","0.0-53.0","AMVBT3XDCQBHI","img_art/21.jpg","null","","","","","","","","","","","","","","","","","","","","","","","","",""
"7711","","image-button-response","57","699186","0.0-54.0","AMVBT3XDCQBHI","img_art/21.jpg","2","","","","","","","","","","","","","","","","","","","","","","","","",""
"1762","","image-button-response","58","700951","0.0-55.0-0.0","AMVBT3XDCQBHI","img_art/21.jpg","0","","","","","","","","","","","","","","","","","","","","","","","","",""
"6968","","image-button-response","59","707923","0.0-56.0-0.0","AMVBT3XDCQBHI","img_art/21.jpg","3","","","","","","","","","","","","","","","","","","","","","","","","",""
"null","","html-keyboard-response","60","709433","0.0-57.0","AMVBT3XDCQBHI","<p style=""font-size: 48px;"">+</p>","","","","","null","allTrialResponses","1500","1","2","img_art/21.jpg","-32","indifferent","Devon,Timothy,Taylor,Mark,Ryan,Lucas","waterpaint is attractive,13,400,20","Very calming and soft, makes me feel good,31,240,20","Remove the rocks(?) on the lower right.,5,200,20","It feels like a day at sea but the pink is slightly jarring and holding my eye.,26,80,20","Very calming and nice to look at,30,380,20","Looks like a war. Many things happening on the painting, really enjoy it.,30,380,20","Taylor","Remove the rocks(?) on the lower right.,5,200,20","Devon","waterpaint is attractive,13,400,20","Mark","It feels like a day at sea but the pink is slightly jarring and holding my eye.,26,80,20","2"
"37374","","survey-text","61","746816","0.0-58.0-0.0","AMVBT3XDCQBHI","","","","{""Q0"":""too busy""}","","","","","","","","","","","","","","","","","","","","","","",""
"21467.29999998212","","image-slider-response","62","768285","0.0-59.0","AMVBT3XDCQBHI","","","","","-2","","","","","","","","","","","","","","","","","","","","","",""
"4521","","image-button-response","63","773292","0.0-60.0","AMVBT3XDCQBHI","img_art/19.jpg","1","","","","","","","","","","","","","","","","","","","","","","","","",""
"4882","","image-button-response","64","778177","0.0-61.0","AMVBT3XDCQBHI","img_art/19.jpg","2","","","","","","","","","","","","","","","","","","","","","","","","",""
"3308","","image-button-response","65","781488","0.0-62.0-0.0","AMVBT3XDCQBHI","img_art/19.jpg","5","","","","","","","","","","","","","","","","","","","","","","","","",""
"2336","","image-button-response","66","783827","0.0-63.0-0.0","AMVBT3XDCQBHI","img_art/19.jpg","1","","","","","","","","","","","","","","","","","","","","","","","","",""
"null","","html-keyboard-response","67","784840","0.0-64.0","AMVBT3XDCQBHI","<p style=""font-size: 48px;"">+</p>","","","","","null","allTrialResponses","1000","1","3","img_art/19.jpg","-2","too busy","Devon,Justin,Taylor,Mark,Corey,Daniel","this looks like a busy city lifestyle,24,400,20","It looks too much of a rough sketch. Don't really enjoy looking at it.,-9,280,20","Looks like a homeless man and this painting should be too.,-5,200,20","Feels like a cafe in Paris.,35,80,20","i think it is ugly and hate the colors,-35,260,20","Simple, scratchy lack of negative space.,-10,320,20","Taylor","Looks like a homeless man and this painting should be too.,-5,200,20","Daniel","Simple, scratchy lack of negative space.,-10,320,20","Justin","It looks too much of a rough sketch. Don't really enjoy looking at it.,-9,280,20","2"
"13472","","survey-text","68","798322","0.0-65.0-0.0","AMVBT3XDCQBHI","","","","{""Q0"":""nothing""}","","","","","","","","","","","","","","","","","","","","","","",""
"8800.700000017881","","image-slider-response","69","807127","0.0-66.0","AMVBT3XDCQBHI","","","","","-33","","","","","","","","","","","","","","","","","","","","","",""
"4267","","image-button-response","70","812136","0.0-67.0","AMVBT3XDCQBHI","img_art/22.jpg","2","","","","","","","","","","","","","","","","","","","","","","","","",""
"3790","","image-button-response","71","815932","0.0-68.0","AMVBT3XDCQBHI","img_art/22.jpg","3","","","","","","","","","","","","","","","","","","","","","","","","",""
"5285","","image-button-response","72","821220","0.0-69.0-0.0","AMVBT3XDCQBHI","img_art/22.jpg","2","","","","","","","","","","","","","","","","","","","","","","","","",""
"5491","","image-button-response","73","826714","0.0-70.0-0.0","AMVBT3XDCQBHI","img_art/22.jpg","4","","","","","","","","","","","","","","","","","","","","","","","","",""
"null","","html-keyboard-response","74","827730","0.0-71.0","AMVBT3XDCQBHI","<p style=""font-size: 48px;"">+</p>","","","","","null","allTrialResponses","1000","1","4","img_art/22.jpg","-33","nothing","Shane,Justin,Taylor,Travis,Blake,Daniel","Sunsets at the beach,42,80,20","It reminds me of sunsets and dusks.,22,280,20","Looks like the kind of art I would see at the doctor's office.,-5,200,20","Don't like it...too much red,-17,260,20","a lost balloon in outer space,12,280,20","Organic sun spot on a flexible grid,18,320,20","Travis","Don't like it...too much red,-17,260,20","Taylor","Looks like the kind of art I would see at the doctor's office.,-5,200,20","Blake","a lost balloon in outer space,12,280,20","2"
"19308","","survey-text","75","847050","0.0-72.0-0.0","AMVBT3XDCQBHI","","","","{""Q0"":""being chased""}","","","","","","","","","","","","","","","","","","","","","","",""
"7636.5","","image-slider-response","76","854688","0.0-73.0","AMVBT3XDCQBHI","","","","","-40","","","","","","","","","","","","","","","","","","","","","",""
"null","","image-button-response","77","859705","0.0-74.0","AMVBT3XDCQBHI","img_art/16.jpg","null","","","","","","","","","","","","","","","","","","","","","","","","",""
"121","","image-button-response","78","859829","0.0-75.0","AMVBT3XDCQBHI","img_art/16.jpg","0","","","","","","","","","","","","","","","","","","","","","","","","",""
"7305","","image-button-response","79","867136","0.0-76.0-0.0","AMVBT3XDCQBHI","img_art/16.jpg","5","","","","","","","","","","","","","","","","","","","","","","","","",""
"4502","","image-button-response","80","871641","0.0-77.0-0.0","AMVBT3XDCQBHI","img_art/16.jpg","2","","","","","","","","","","","","","","","","","","","","","","","","",""
"null","","html-keyboard-response","81","872651","0.0-78.0","AMVBT3XDCQBHI","<p style=""font-size: 48px;"">+</p>","","","","","null","allTrialResponses","1000","1","5","img_art/16.jpg","-40","being chased","Isaiah,Adrian,Taylor,Travis,Blake,Alejandro","I feel irked, like somehow the items in this painting just happened to fall on the page together.,-44,300,20","It's depressing. Probably achieved its goal. But I wouldn't want it hanging in my home.,-31,60,20","It is sick to put a teddy bear and a gun on the same piece of canvas.,-40,200,20","I like the teddy bear,but a neutral feeling,5,260,20","cute and warm. i like the bear,15,280,20","Garble and nonsense,-50,80,20","Isaiah","I feel irked, like somehow the items in this painting just happened to fall on the page together.,-44,300,20","Alejandro","Garble and nonsense,-50,80,20","Taylor","It is sick to put a teddy bear and a gun on the same piece of canvas.,-40,200,20","2"
"8897","","survey-text","82","881571","0.0-79.0-0.0","AMVBT3XDCQBHI","","","","{""Q0"":""sky""}","","","","","","","","","","","","","","","","","","","","","","",""
"31200","","survey-text","83","912773","0.0-80.0-0.0","AMVBT3XDCQBHI","","","","{""Q0"":""junkyard""}","","","","","","","","","","","","","","","","","","","","","","",""
"7636.9000000059605","","image-slider-response","84","920412","0.0-81.0","AMVBT3XDCQBHI","","","","","-29","","","","","","","","","","","","","","","","","","","","","",""
"null","","image-button-response","85","925416","0.0-82.0","AMVBT3XDCQBHI","img_art/20.jpg","null","","","","","","","","","","","","","","","","","","","","","","","","",""
"153","","image-button-response","86","925573","0.0-83.0","AMVBT3XDCQBHI","img_art/20.jpg","3","","","","","","","","","","","","","","","","","","","","","","","","",""
"11435","","image-button-response","87","937011","0.0-84.0-0.0","AMVBT3XDCQBHI","img_art/20.jpg","1","","","","","","","","","","","","","","","","","","","","","","","","",""
"5148","","image-button-response","88","942163","0.0-85.0-0.0","AMVBT3XDCQBHI","img_art/20.jpg","2","","","","","","","","","","","","","","","","","","","","","","","","",""
"null","","html-keyboard-response","89","942678","0.0-86.0","AMVBT3XDCQBHI","<p style=""font-size: 48px;"">+</p>","","","","","null","allTrialResponses","500","1","6","img_art/20.jpg","-29","junkyard","Isaiah,Tristan,Taylor,Jeffrey,Shawn,Alejandro","I feel powerful, like I am looking out a window at this machine, that I am in charge.,17,300,20","Elements that are more defined are incongruous to the soft and melting nature of this painting,5,300,20","Not bad for all the southwestern people.,15,200,20","looks like an auto accident,-30,40,20","Mood setting if a little dreary,20,100,20","The pulling and sagging nature is very beautiful.,30,80,20","Jeffrey","looks like an auto accident,-30,40,20","Tristan","Elements that are more defined are incongruous to the soft and melting nature of this painting,5,300,20","Taylor","Not bad for all the southwestern people.,15,200,20","2"
"18905","","survey-text","90","961592","0.0-87.0-0.0","AMVBT3XDCQBHI","","","","{""Q0"":""highway overview""}","","","","","","","","","","","","","","","","","","","","","","",""
"7430.600000023842","","image-slider-response","91","969025","0.0-88.0","AMVBT3XDCQBHI","","","","","-32","","","","","","","","","","","","","","","","","","","","","",""
"null","","image-button-response","92","974038","0.0-89.0","AMVBT3XDCQBHI","img_art/11.jpg","null","","","","","","","","","","","","","","","","","","","","","","","","",""
"165","","image-button-response","93","974207","0.0-90.0","AMVBT3XDCQBHI","img_art/11.jpg","3","","","","","","","","","","","","","","","","","","","","","","","","",""
"2632","","image-button-response","94","976841","0.0-91.0-0.0","AMVBT3XDCQBHI","img_art/11.jpg","2","","","","","","","","","","","","","","","","","","","","","","","","",""
"12145","","image-button-response","95","988989","0.0-92.0-0.0","AMVBT3XDCQBHI","img_art/11.jpg","1","","","","","","","","","","","","","","","","","","","","","","","","",""
"null","","html-keyboard-response","96","989501","0.0-93.0","AMVBT3XDCQBHI","<p style=""font-size: 48px;"">+</p>","","","","","null","allTrialResponses","500","1","7","img_art/11.jpg","-32","highway overview","Bradley,Tristan,Taylor,Jeffrey,Nicholas,Carlos","WOW!  I love how the ships and the seas become one in this piece.,50,300,20","Simple and complex. Hopeful yet dark. I love this,35,300,20","Busy, busy oceanside city.,-10,200,20","a lot of dark colours,-8,40,20","Love the colors and flow,50,240,20","The colors are lovely. February getting ready to yield to March.,41,80,20","Jeffrey","a lot of dark colours,-8,40,20","Taylor","Busy, busy oceanside city.,-10,200,20","Tristan","Simple and complex. Hopeful yet dark. I love this,35,300,20","2"
"13848","","survey-text","97","1003361","0.0-94.0-0.0","AMVBT3XDCQBHI","","","","{""Q0"":""blood sport""}","","","","","","","","","","","","","","","","","","","","","","",""
"8383","","image-slider-response","98","1011746","0.0-95.0","AMVBT3XDCQBHI","","","","","-45","","","","","","","","","","","","","","","","","","","","","",""
"null","","image-button-response","99","1016750","0.0-96.0","AMVBT3XDCQBHI","img_art/3.jpg","null","","","","","","","","","","","","","","","","","","","","","","","","",""
"1290","","image-button-response","100","1018044","0.0-97.0","AMVBT3XDCQBHI","img_art/3.jpg","2","","","","","","","","","","","","","","","","","","","","","","","","",""
"7009","","image-button-response","101","1025057","0.0-98.0-0.0","AMVBT3XDCQBHI","img_art/3.jpg","5","","","","","","","","","","","","","","","","","","","","","","","","",""
"4237","","image-button-response","102","1029297","0.0-99.0-0.0","AMVBT3XDCQBHI","img_art/3.jpg","3","","","","","","","","","","","","","","","","","","","","","","","","",""
"null","","html-keyboard-response","103","1029805","0.0-100.0","AMVBT3XDCQBHI","<p style=""font-size: 48px;"">+</p>","","","","","null","allTrialResponses","500","1","8","img_art/3.jpg","-45","blood sport","Joseph,Tristan,Taylor,Jeffrey,Jesus,Evan","Really have no idea what I'm looking at.,1,220,20","i like the colors particulairly the contrast of foreground to background. Exciting and thoughtful.,10,300,20","Why kids with color crayons is called art is beyond me. People pay for this???,-40,200,20","Associates with blood and crime scene,-12,40,20","I like the simplicity of it.,20,100,20","It feels like a half assed and failed imitation of Japanese signatures on old paintings,-22,140,20","Taylor","Why kids with color crayons is called art is beyond me. People pay for this???,-40,200,20","Evan","It feels like a half assed and failed imitation of Japanese signatures on old paintings,-22,140,20","Jeffrey","Associates with blood and crime scene,-12,40,20","2"
"22175","","survey-text","104","1051990","0.0-101.0-0.0","AMVBT3XDCQBHI","","","","{""Q0"":""reaching out""}","","","","","","","","","","","","","","","","","","","","","","",""
"7784.800000011921","","image-slider-response","105","1059777","0.0-102.0","AMVBT3XDCQBHI","","","","","-43","","","","","","","","","","","","","","","","","","","","","",""
"null","","image-button-response","106","1064794","0.0-103.0","AMVBT3XDCQBHI","img_art/28.jpg","null","","","","","","","","","","","","","","","","","","","","","","","","",""
"1551","","image-button-response","107","1066349","0.0-104.0","AMVBT3XDCQBHI","img_art/28.jpg","5","","","","","","","","","","","","","","","","","","","","","","","","",""
"3131","","image-button-response","108","1069484","0.0-105.0-0.0","AMVBT3XDCQBHI","img_art/28.jpg","2","","","","","","","","","","","","","","","","","","","","","","","","",""
"5049","","image-button-response","109","1074537","0.0-106.0-0.0","AMVBT3XDCQBHI","img_art/28.jpg","0","","","","","","","","","","","","","","","","","","","","","","","","",""
"null","","html-keyboard-response","110","1076053","0.0-107.0","AMVBT3XDCQBHI","<p style=""font-size: 48px;"">+</p>","","","","","null","allTrialResponses","1500","1","9","img_art/28.jpg","-43","reaching out","Luis,Malik,Taylor,Jeffrey,Brett,Evan","Self-hate and abuse at home, unsafe and torturing,-30,400,20","Invokes curiosity, I want to know it's story.,15,40,20","Bug meets bug in a dark alley.,-20,200,20","Nothing calls my attention,15,40,20","Overpopulated city,35,360,20","It feels very blah,-10,140,20","Evan","It feels very blah,-10,140,20","Taylor","Bug meets bug in a dark alley.,-20,200,20","Luis","Self-hate and abuse at home, unsafe and torturing,-30,400,20","2"
"11636","","survey-text","111","1087700","0.0-108.0-0.0","AMVBT3XDCQBHI","","","","{""Q0"":""ghostly""}","","","","","","","","","","","","","","","","","","","","","","",""
"7185.9000000059605","","image-slider-response","112","1094889","0.0-109.0","AMVBT3XDCQBHI","","","","","-48","","","","","","","","","","","","","","","","","","","","","",""
"null","","image-button-response","113","1099904","0.0-110.0","AMVBT3XDCQBHI","img_art/17.jpg","null","","","","","","","","","","","","","","","","","","","","","","","","",""
"3121","","image-button-response","114","1103029","0.0-111.0","AMVBT3XDCQBHI","img_art/17.jpg","2","","","","","","","","","","","","","","","","","","","","","","","","",""
"9562","","image-button-response","115","1112593","0.0-112.0-0.0","AMVBT3XDCQBHI","img_art/17.jpg","4","","","","","","","","","","","","","","","","","","","","","","","","",""
"19153","","image-button-response","116","1131750","0.0-113.0-0.0","AMVBT3XDCQBHI","img_art/17.jpg","0","","","","","","","","","","","","","","","","","","","","","","","","",""
"null","","html-keyboard-response","117","1132753","0.0-114.0","AMVBT3XDCQBHI","<p style=""font-size: 48px;"">+</p>","","","","","null","allTrialResponses","1000","1","10","img_art/17.jpg","-48","ghostly","Luis,Caleb,Taylor,Andrew,Patrick,Evan","Messy shadow of loss and love,50,400,20","Not even abstract to me, very clear meaning.,44,40,20","Somewhat should trim the tree branches at the shopping mall.,10,200,20","A very inspiring piece,41,160,20","Beautiful patterns but evokes sad emotions in me due to the color shades,31,280,20","This reminds me of spring,24,140,20","Taylor","Somewhat should trim the tree branches at the shopping mall.,10,200,20","Patrick","Beautiful patterns but evokes sad emotions in me due to the color shades,31,280,20","Luis","Messy shadow of loss and love,50,400,20","2"
"7277","","survey-text","118","1140057","0.0-115.0-0.0","AMVBT3XDCQBHI","","","","{""Q0"":""our""}","","","","","","","","","","","","","","","","","","","","","","",""
"29506","","survey-text","119","1169564","0.0-116.0-0.0","AMVBT3XDCQBHI","","","","{""Q0"":""messed up""}","","","","","","","","","","","","","","","","","","","","","","",""
"7236.200000017881","","image-slider-response","120","1176802","0.0-117.0","AMVBT3XDCQBHI","","","","","-42","","","","","","","","","","","","","","","","","","","","","",""
"null","","image-button-response","121","1181806","0.0-118.0","AMVBT3XDCQBHI","img_art/15.jpg","null","","","","","","","","","","","","","","","","","","","","","","","","",""
"194","","image-button-response","122","1182004","0.0-119.0","AMVBT3XDCQBHI","img_art/15.jpg","4","","","","","","","","","","","","","","","","","","","","","","","","",""
"2887","","image-button-response","123","1184893","0.0-120.0-0.0","AMVBT3XDCQBHI","img_art/15.jpg","0","","","","","","","","","","","","","","","","","","","","","","","","",""
"11844","","image-button-response","124","1196740","0.0-121.0-0.0","AMVBT3XDCQBHI","img_art/15.jpg","1","","","","","","","","","","","","","","","","","","","","","","","","",""
"null","","html-keyboard-response","125","1198246","0.0-122.0","AMVBT3XDCQBHI","<p style=""font-size: 48px;"">+</p>","","","","","null","allTrialResponses","1500","1","11","img_art/15.jpg","-42","messed up","Luis,Ian,Taylor,Jordan,Patrick,Jorge","Extreme darkness and sadness,-30,400,20","This gives a skin crawling feeling. Like something that you could see under a mircoscope,10,260,20","Getting better.,10,200,20","This also has nice contrast,34,160,20","I don't like the black dots,-19,280,20","interested in this transformation,20,180,20","Patrick","I don't like the black dots,-19,280,20","Luis","Extreme darkness and sadness,-30,400,20","Ian","This gives a skin crawling feeling. Like something that you could see under a mircoscope,10,260,20","2"
"18215","","survey-text","126","1216472","0.0-123.0-0.0","AMVBT3XDCQBHI","","","","{""Q0"":""footprints on mars""}","","","","","","","","","","","","","","","","","","","","","","",""
"6884.199999988079","","image-slider-response","127","1223358","0.0-124.0","AMVBT3XDCQBHI","","","","","-38","","","","","","","","","","","","","","","","","","","","","",""
"null","","image-button-response","128","1228362","0.0-125.0","AMVBT3XDCQBHI","img_art/7.jpg","null","","","","","","","","","","","","","","","","","","","","","","","","",""
"800","","image-button-response","129","1229167","0.0-126.0","AMVBT3XDCQBHI","img_art/7.jpg","1","","","","","","","","","","","","","","","","","","","","","","","","",""
"7936","","image-button-response","130","1237106","0.0-127.0-0.0","AMVBT3XDCQBHI","img_art/7.jpg","4","","","","","","","","","","","","","","","","","","","","","","","","",""
"9322","","image-button-response","131","1246431","0.0-128.0-0.0","AMVBT3XDCQBHI","img_art/7.jpg","2","","","","","","","","","","","","","","","","","","","","","","","","",""
"null","","html-keyboard-response","132","1247946","0.0-129.0","AMVBT3XDCQBHI","<p style=""font-size: 48px;"">+</p>","","","","","null","allTrialResponses","1500","1","12","img_art/7.jpg","-38","footprints on mars","Luis,Ian,Anthony,Jeremy,Patrick,Brendan","Not getting the vibe i would like from this,-30,400,20","This looks like a literal picture of the ground so I'm really not too sure about this one.,-42,260,20","Very, very dull compared to the other paintings,-36,200,20","Happy. Looking at the moon,43,60,20","It feels cold and hard,-40,280,20","some rocks on a mars?,7,340,20","Ian","This looks like a literal picture of the ground so I'm really not too sure about this one.,-42,260,20","Patrick","It feels cold and hard,-40,280,20","Anthony","Very, very dull compared to the other paintings,-36,200,20","2"
"18826","","survey-text","133","1266784","0.0-130.0-0.0","AMVBT3XDCQBHI","","","","{""Q0"":""no vase""}","","","","","","","","","","","","","","","","","","","","","","",""
"9577.59999999404","","image-slider-response","134","1276364","0.0-131.0","AMVBT3XDCQBHI","","","","","1","","","","","","","","","","","","","","","","","","","","","",""
"4160","","image-button-response","135","1281375","0.0-132.0","AMVBT3XDCQBHI","img_art/14.jpg","2","","","","","","","","","","","","","","","","","","","","","","","","",""
"5407","","image-button-response","136","1286787","0.0-133.0","AMVBT3XDCQBHI","img_art/14.jpg","3","","","","","","","","","","","","","","","","","","","","","","","","",""
"18882","","image-button-response","137","1305672","0.0-134.0-0.0","AMVBT3XDCQBHI","img_art/14.jpg","4","","","","","","","","","","","","","","","","","","","","","","","","",""
"5503","","image-button-response","138","1311178","0.0-135.0-0.0","AMVBT3XDCQBHI","img_art/14.jpg","2","","","","","","","","","","","","","","","","","","","","","","","","",""
"null","","html-keyboard-response","139","1311695","0.0-136.0","AMVBT3XDCQBHI","<p style=""font-size: 48px;"">+</p>","","","","","null","allTrialResponses","500","1","13","img_art/14.jpg","1","no vase","Kevin,Ian,Anthony,Adam,Patrick,Brian","The pirates ship is sinking.,27,320,20","This just looks like a kids watercolor painting.,-30,260,20","This piece is average compared to the others.,1,200,20","Very abstract. Unsure of what I'm looking at. No emotions towards it.,-6,40,20","It uplifts my mood due to the color scheme,32,280,20","I don't care for the style,-38,380,20","Adam","Very abstract. Unsure of what I'm looking at. No emotions towards it.,-6,40,20","Patrick","It uplifts my mood due to the color scheme,32,280,20","Anthony","This piece is average compared to the others.,1,200,20","2"
"13258","","survey-text","140","1324965","0.0-137.0-0.0","AMVBT3XDCQBHI","","","","{""Q0"":""waterfall""}","","","","","","","","","","","","","","","","","","","","","","",""
"8911.699999988079","","image-slider-response","141","1333879","0.0-138.0","AMVBT3XDCQBHI","","","","","-23","","","","","","","","","","","","","","","","","","","","","",""
"4004","","image-button-response","142","1338886","0.0-139.0","AMVBT3XDCQBHI","img_art/24.jpg","3","","","","","","","","","","","","","","","","","","","","","","","","",""
"4002","","image-button-response","143","1342892","0.0-140.0","AMVBT3XDCQBHI","img_art/24.jpg","2","","","","","","","","","","","","","","","","","","","","","","","","",""
"14568","","image-button-response","144","1357463","0.0-141.0-0.0","AMVBT3XDCQBHI","img_art/24.jpg","3","","","","","","","","","","","","","","","","","","","","","","","","",""
"6100","","image-button-response","145","1363566","0.0-142.0-0.0","AMVBT3XDCQBHI","img_art/24.jpg","1","","","","","","","","","","","","","","","","","","","","","","","","",""
"null","","html-keyboard-response","146","1364579","0.0-143.0","AMVBT3XDCQBHI","<p style=""font-size: 48px;"">+</p>","","","","","null","allTrialResponses","1000","1","14","img_art/24.jpg","-23","waterfall","Steven,Dakota,Anthony,Adam,Patrick,Noah","It's beautiful! I love it! I see a waterfall, and they are my favorite things in the world,50,160,20","chunky fresh color,27,280,20","This piece resembles a waterfall surrounded by trees.,21,200,20","I appreciate the earth tones. Soothing.,5,40,20","Beautiful scenic drawing with perfect color coordination,43,280,20","this evokes a gutural reaction - it displeases me how similar it is to art I saw growing up,-30,260,20","Anthony","This piece resembles a waterfall surrounded by trees.,21,200,20","Adam","I appreciate the earth tones. Soothing.,5,40,20","Dakota","chunky fresh color,27,280,20","2"
"19167","","survey-text","147","1383757","0.0-144.0-0.0","AMVBT3XDCQBHI","","","","{""Q0"":""kidde pool""}","","","","","","","","","","","","","","","","","","","","","","",""
"7444.700000017881","","image-slider-response","148","1391204","0.0-145.0","AMVBT3XDCQBHI","","","","","-36","","","","","","","","","","","","","","","","","","","","","",""
"null","","image-button-response","149","1396208","0.0-146.0","AMVBT3XDCQBHI","img_art/29.jpg","null","","","","","","","","","","","","","","","","","","","","","","","","",""
"1684","","image-button-response","150","1397895","0.0-147.0","AMVBT3XDCQBHI","img_art/29.jpg","0","","","","","","","","","","","","","","","","","","","","","","","","",""
"3612","","image-button-response","151","1401510","0.0-148.0-0.0","AMVBT3XDCQBHI","img_art/29.jpg","1","","","","","","","","","","","","","","","","","","","","","","","","",""
"5013","","image-button-response","152","1406526","0.0-149.0-0.0","AMVBT3XDCQBHI","img_art/29.jpg","4","","","","","","","","","","","","","","","","","","","","","","","","",""
"null","","html-keyboard-response","153","1407529","0.0-150.0","AMVBT3XDCQBHI","<p style=""font-size: 48px;"">+</p>","","","","","null","allTrialResponses","1000","1","15","img_art/29.jpg","-36","kidde pool","Garrett,Dakota,Anthony,Adam,David,Austin","I think this image looks ugly and needs more colors so it looks nicer.,-30,180,20","this is not art to me - it's random collage,-45,280,20","Very interesting composition,41,200,20","Flash is too strong. Dislike the colors,-5,40,20","Don't really like the red x. It gives the impression that this a discarded piece.,-10,340,20","Has a haunting feel to it,22,240,20","Garrett","I think this image looks ugly and needs more colors so it looks nicer.,-30,180,20","Dakota","this is not art to me - it's random collage,-45,280,20","David","Don't really like the red x. It gives the impression that this a discarded piece.,-10,340,20","2"
"8973","","survey-text","154","1416526","0.0-151.0-0.0","AMVBT3XDCQBHI","","","","{""Q0"":""course""}","","","","","","","","","","","","","","","","","","","","","","",""
"34322","","survey-text","155","1450850","0.0-152.0-0.0","AMVBT3XDCQBHI","","","","{""Q0"":""mt vesuvius""}","","","","","","","","","","","","","","","","","","","","","","",""
"6531.5","","image-slider-response","156","1457384","0.0-153.0","AMVBT3XDCQBHI","","","","","-46","","","","","","","","","","","","","","","","","","","","","",""
"null","","image-button-response","157","1462387","0.0-154.0","AMVBT3XDCQBHI","img_art/5.jpg","null","","","","","","","","","","","","","","","","","","","","","","","","",""
"214","","image-button-response","158","1462605","0.0-155.0","AMVBT3XDCQBHI","img_art/5.jpg","0","","","","","","","","","","","","","","","","","","","","","","","","",""
"3063","","image-button-response","159","1465671","0.0-156.0-0.0","AMVBT3XDCQBHI","img_art/5.jpg","5","","","","","","","","","","","","","","","","","","","","","","","","",""
"3190","","image-button-response","160","1468864","0.0-157.0-0.0","AMVBT3XDCQBHI","img_art/5.jpg","2","","","","","","","","","","","","","","","","","","","","","","","","",""
"null","","html-keyboard-response","161","1470380","0.0-158.0","AMVBT3XDCQBHI","<p style=""font-size: 48px;"">+</p>","","","","","null","allTrialResponses","1500","1","16","img_art/5.jpg","-46","mt vesuvius","Garrett,Dakota,Chase,Paul,David,Juan","I don't know what it's supposed to be and it looks ugly the way the colors are on the yellow cube.,-50,180,20","fresh and fun - bright and active,16,280,20","Seems very basic and uninteresting.,-15,120,20","I like how simple it is and the pink brushstrokes are nice,27,300,20","I like the simplicity of the design, but I can't tell what the image is trying to depict.,10,340,20","The yellow is garish and the picture doesn't look liked anything.,-49,260,20","Garrett","I don't know what it's supposed to be and it looks ugly the way the colors are on the yellow cube.,-50,180,20","Juan","The yellow is garish and the picture doesn't look liked anything.,-49,260,20","Chase","Seems very basic and uninteresting.,-15,120,20","2"
"9365","","survey-text","162","1479757","0.0-159.0-0.0","AMVBT3XDCQBHI","","","","{""Q0"":""scribble""}","","","","","","","","","","","","","","","","","","","","","","",""
"7256.5","","image-slider-response","163","1487016","0.0-160.0","AMVBT3XDCQBHI","","","","","-44","","","","","","","","","","","","","","","","","","","","","",""
"null","","image-button-response","164","1492019","0.0-161.0","AMVBT3XDCQBHI","img_art/9.jpg","null","","","","","","","","","","","","","","","","","","","","","","","","",""
"1095","","image-button-response","165","1493118","0.0-162.0","AMVBT3XDCQBHI","img_art/9.jpg","3","","","","","","","","","","","","","","","","","","","","","","","","",""
"5013","","image-button-response","166","1498134","0.0-163.0-0.0","AMVBT3XDCQBHI","img_art/9.jpg","1","","","","","","","","","","","","","","","","","","","","","","","","",""
"9103","","image-button-response","167","1507240","0.0-164.0-0.0","AMVBT3XDCQBHI","img_art/9.jpg","2","","","","","","","","","","","","","","","","","","","","","","","","",""
"null","","html-keyboard-response","168","1507752","0.0-165.0","AMVBT3XDCQBHI","<p style=""font-size: 48px;"">+</p>","","","","","null","allTrialResponses","500","1","17","img_art/9.jpg","-44","scribble","Garrett,Joshua,Chase,Tyler,Edward,Juan","This looks like someone sleeping in a bed, and I think the colors make it look interesting.,20,180,20","Someone lying in bed?  Don't care for it.,-14,240,20","Looks like a sloppy iguana.,-11,120,20","No cohesive form whatsoever. Hard pass.,-31,320,20","The colors remind me of peacocks,24,60,20","It's too abstract for my taste. I wish there were more definition.,-9,260,20","Tyler","No cohesive form whatsoever. Hard pass.,-31,320,20","Joshua","Someone lying in bed?  Don't care for it.,-14,240,20","Chase","Looks like a sloppy iguana.,-11,120,20","2"
"10295","","survey-text","169","1518059","0.0-166.0-0.0","AMVBT3XDCQBHI","","","","{""Q0"":""raindrops""}","","","","","","","","","","","","","","","","","","","","","","",""
"6894.299999982119","","image-slider-response","170","1524955","0.0-167.0","AMVBT3XDCQBHI","","","","","-31","","","","","","","","","","","","","","","","","","","","","",""
"null","","image-button-response","171","1529960","0.0-168.0","AMVBT3XDCQBHI","img_art/13.jpg","null","","","","","","","","","","","","","","","","","","","","","","","","",""
"704","","image-button-response","172","1530666","0.0-169.0","AMVBT3XDCQBHI","img_art/13.jpg","2","","","","","","","","","","","","","","","","","","","","","","","","",""
"10773","","image-button-response","173","1541442","0.0-170.0-0.0","AMVBT3XDCQBHI","img_art/13.jpg","0","","","","","","","","","","","","","","","","","","","","","","","","",""
"7793","","image-button-response","174","1549240","0.0-171.0-0.0","AMVBT3XDCQBHI","img_art/13.jpg","4","","","","","","","","","","","","","","","","","","","","","","","","",""
"null","","html-keyboard-response","175","1549751","0.0-172.0","AMVBT3XDCQBHI","<p style=""font-size: 48px;"">+</p>","","","","","null","allTrialResponses","500","1","18","img_art/13.jpg","-31","raindrops","Tanner,Joshua,Chase,Tyler,Nathan,Gregory","happy, serenity,30,180,20","Like this a lot and would hang in my house.,27,240,20","Seems a little cold but I like the neuron looking splatters.,10,120,20","Pollock? Love the juxtaposition of colors. Soothing and stirring, a beautiful inexplicable paradox.,50,320,20","While it is a bit basic and doesn't speak to me much, I like the feeling it gives,40,200,20","Cool colors and looks like rain on a window,45,220,20","Chase","Seems a little cold but I like the neuron looking splatters.,10,120,20","Tanner","happy, serenity,30,180,20","Nathan","While it is a bit basic and doesn't speak to me much, I like the feeling it gives,40,200,20","2"
"30621","","survey-text","176","1580385","0.0-173.0-0.0","AMVBT3XDCQBHI","","","","{""Q0"":""four legs?""}","","","","","","","","","","","","","","","","","","","","","","",""
"8247.800000011921","","image-slider-response","177","1588635","0.0-174.0","AMVBT3XDCQBHI","","","","","-43","","","","","","","","","","","","","","","","","","","","","",""
"null","","image-button-response","178","1593638","0.0-175.0","AMVBT3XDCQBHI","img_art/27.jpg","null","","","","","","","","","","","","","","","","","","","","","","","","",""
"480","","image-button-response","179","1594121","0.0-176.0","AMVBT3XDCQBHI","img_art/27.jpg","4","","","","","","","","","","","","","","","","","","","","","","","","",""
"3504","","image-button-response","180","1597628","0.0-177.0-0.0","AMVBT3XDCQBHI","img_art/27.jpg","3","","","","","","","","","","","","","","","","","","","","","","","","",""
"3690","","image-button-response","181","1601322","0.0-178.0-0.0","AMVBT3XDCQBHI","img_art/27.jpg","0","","","","","","","","","","","","","","","","","","","","","","","","",""
"null","","html-keyboard-response","182","1602830","0.0-179.0","AMVBT3XDCQBHI","<p style=""font-size: 48px;"">+</p>","","","","","null","allTrialResponses","1500","1","19","img_art/27.jpg","-43","four legs?","Tanner,Benjamin,Chase,Jesse,Nathan,Ethan","makes me think of fume clouds, low visibility,-28,180,20","I like the colors.,6,260,20","I don't really see anything to this art.,-5,120,20","Doesnt look like anything to me. Doesnt capture my attention.,-25,80,20","Looks a bit like a child's project with unsatisfying colors,-31,200,20","I like the layer upon layer of different mediums used here.,21,120,20","Nathan","Looks a bit like a child's project with unsatisfying colors,-31,200,20","Jesse","Doesnt look like anything to me. Doesnt capture my attention.,-25,80,20","Tanner","makes me think of fume clouds, low visibility,-28,180,20","2"
"45178","","survey-text","183","1648020","0.0-180.0-0.0","AMVBT3XDCQBHI","","","","{""Q0"":""neighborhood""}","","","","","","","","","","","","","","","","","","","","","","",""
"8059.299999982119","","image-slider-response","184","1656082","0.0-181.0","AMVBT3XDCQBHI","","","","","-21","","","","","","","","","","","","","","","","","","","","","",""
"4671","","image-button-response","185","1661098","0.0-182.0","AMVBT3XDCQBHI","img_art/26.jpg","3","","","","","","","","","","","","","","","","","","","","","","","","",""
"4895","","image-button-response","186","1665997","0.0-183.0","AMVBT3XDCQBHI","img_art/26.jpg","4","","","","","","","","","","","","","","","","","","","","","","","","",""
"9636","","image-button-response","187","1675635","0.0-184.0-0.0","AMVBT3XDCQBHI","img_art/26.jpg","2","","","","","","","","","","","","","","","","","","","","","","","","",""
"3455","","image-button-response","188","1679094","0.0-185.0-0.0","AMVBT3XDCQBHI","img_art/26.jpg","3","","","","","","","","","","","","","","","","","","","","","","","","",""
"null","","html-keyboard-response","189","1680600","0.0-186.0","AMVBT3XDCQBHI","<p style=""font-size: 48px;"">+</p>","","","","","null","allTrialResponses","1500","1","20","img_art/26.jpg","-21","neighborhood","Tanner,Jose,Stephen,Jesse,Nathan,Christian","happy, park, childhood,9,180,20","This style of objects that are supposed to be something but then are blurry is interesting.,38,200,20","No strong reaction but the color scheme is nice,10,140,20","Looks bland and boring,-5,80,20","It's a little too yellow-y for me, I'm not a huge fan of the color schemes or setting it portrays.,-20,200,20","love the ""lowkey"" vibrant colors that are colorful but at the same time greyscale,12,140,20","Nathan","It's a little too yellow-y for me, I'm not a huge fan of the color schemes or setting it portrays.,-20,200,20","Stephen","No strong reaction but the color scheme is nice,10,140,20","Jesse","Looks bland and boring,-5,80,20","2"
"19723","","survey-text","190","1700351","0.0-187.0-0.0","AMVBT3XDCQBHI","","","","{""Q0"":""we""}","","","","","","","","","","","","","","","","","","","","","","",""
"9776","","survey-text","191","1710128","0.0-188.0-0.0","AMVBT3XDCQBHI","","","","{""Q0"":""ostrich""}","","","","","","","","","","","","","","","","","","","","","","",""
"7482.299999982119","","image-slider-response","192","1717613","0.0-189.0","AMVBT3XDCQBHI","","","","","-34","","","","","","","","","","","","","","","","","","","","","",""
"null","","image-button-response","193","1722616","0.0-190.0","AMVBT3XDCQBHI","img_art/6.jpg","null","","","","","","","","","","","","","","","","","","","","","","","","",""
"83","","image-button-response","194","1722707","0.0-191.0","AMVBT3XDCQBHI","img_art/6.jpg","4","","","","","","","","","","","","","","","","","","","","","","","","",""
"3701","","image-button-response","195","1726410","0.0-192.0-0.0","AMVBT3XDCQBHI","img_art/6.jpg","1","","","","","","","","","","","","","","","","","","","","","","","","",""
"11065","","image-button-response","196","1737478","0.0-193.0-0.0","AMVBT3XDCQBHI","img_art/6.jpg","2","","","","","","","","","","","","","","","","","","","","","","","","",""
"null","","html-keyboard-response","197","1738989","0.0-194.0","AMVBT3XDCQBHI","<p style=""font-size: 48px;"">+</p>","","","","","null","allTrialResponses","1500","1","21","img_art/6.jpg","-34","ostrich","Charles,Antonio,Stephen,Jesse,Nathan,Zachary","It's pretty dour,-10,100,20","Lonely and kinda sad,-25,220,20","Good painting but too simple to care about it for very long.,-15,140,20","Nothing grabs at me here,-11,80,20","Not a fan of anything in this,-43,200,20","Reminds me of a plant poking through the soil. It reminds me of new life.,31,400,20","Nathan","Not a fan of anything in this,-43,200,20","Antonio","Lonely and kinda sad,-25,220,20","Stephen","Good painting but too simple to care about it for very long.,-15,140,20","2"
"22726","","survey-text","198","1761732","0.0-195.0-0.0","AMVBT3XDCQBHI","","","","{""Q0"":""no idea""}","","","","","","","","","","","","","","","","","","","","","","",""
"6444","","image-slider-response","199","1768179","0.0-196.0","AMVBT3XDCQBHI","","","","","-45","","","","","","","","","","","","","","","","","","","","","",""
"null","","image-button-response","200","1773183","0.0-197.0","AMVBT3XDCQBHI","img_art/2.jpg","null","","","","","","","","","","","","","","","","","","","","","","","","",""
"2330","","image-button-response","201","1775517","0.0-198.0","AMVBT3XDCQBHI","img_art/2.jpg","3","","","","","","","","","","","","","","","","","","","","","","","","",""
"2573","","image-button-response","202","1778094","0.0-199.0-0.0","AMVBT3XDCQBHI","img_art/2.jpg","1","","","","","","","","","","","","","","","","","","","","","","","","",""
"3081","","image-button-response","203","1781179","0.0-200.0-0.0","AMVBT3XDCQBHI","img_art/2.jpg","0","","","","","","","","","","","","","","","","","","","","","","","","",""
"null","","html-keyboard-response","204","1782185","0.0-201.0","AMVBT3XDCQBHI","<p style=""font-size: 48px;"">+</p>","","","","","null","allTrialResponses","1000","1","22","img_art/2.jpg","-45","no idea","Spencer,Antonio,Stephen,Jonathan,Nathan,Mason","Kind of looks upside down, I need a focal point,-29,120,20","Colors are drab and cause a sense of blandness,-28,220,20","Colors mix nicely.,5,140,20","It's a cool piece but honestly these color choices are the worst thing in the world,-31,140,20","Not a fan of this style,-30,200,20","retro, amateurish, not a fan of the colors together.,-10,100,20","Jonathan","It's a cool piece but honestly these color choices are the worst thing in the world,-31,140,20","Antonio","Colors are drab and cause a sense of blandness,-28,220,20","Spencer","Kind of looks upside down, I need a focal point,-29,120,20","2"
"32786","","survey-text","205","1814987","0.0-202.0-0.0","AMVBT3XDCQBHI","","","","{""Q0"":""good for puzzles""}","","","","","","","","","","","","","","","","","","","","","","",""
"7198.0999999940395","","image-slider-response","206","1822187","0.0-203.0","AMVBT3XDCQBHI","","","","","-44","","","","","","","","","","","","","","","","","","","","","",""
"4731","","image-button-response","207","1827205","0.0-204.0","AMVBT3XDCQBHI","img_art/23.jpg","2","","","","","","","","","","","","","","","","","","","","","","","","",""
"7392","","image-button-response","208","1834601","0.0-205.0","AMVBT3XDCQBHI","img_art/23.jpg","5","","","","","","","","","","","","","","","","","","","","","","","","",""
"11194","","image-button-response","209","1845798","0.0-206.0-0.0","AMVBT3XDCQBHI","img_art/23.jpg","0","","","","","","","","","","","","","","","","","","","","","","","","",""
"1564","","image-button-response","210","1847365","0.0-207.0-0.0","AMVBT3XDCQBHI","img_art/23.jpg","2","","","","","","","","","","","","","","","","","","","","","","","","",""
"null","","html-keyboard-response","211","1848377","0.0-208.0","AMVBT3XDCQBHI","<p style=""font-size: 48px;"">+</p>","","","","","null","allTrialResponses","1000","1","23","img_art/23.jpg","-44","good for puzzles","Spencer,Antonio,Logan,Jonathan,Thomas,Alex","Interesting, want to look at it more to identify,25,120,20","Like the colors and made me feel happy,23,220,20","This looks like the cover art for a scene band,-29,360,20","Those colors are awesome! And I love the strip of negative space that almost looks like a line of people,50,140,20","Beautiful. Very detailed and colorful. I enjoy looking at it.,50,220,20","This is nice, the colorful background is fun and the white looks like dancing figures,5,100,20","Alex","This is nice, the colorful background is fun and the white looks like dancing figures,5,100,20","Spencer","Interesting, want to look at it more to identify,25,120,20","Logan","This looks like the cover art for a scene band,-29,360,20","2"
"21592","","survey-text","212","1869984","0.0-209.0-0.0","AMVBT3XDCQBHI","","","","{""Q0"":""breakup""}","","","","","","","","","","","","","","","","","","","","","","",""
"6296.799999982119","","image-slider-response","213","1876283","0.0-210.0","AMVBT3XDCQBHI","","","","","-36","","","","","","","","","","","","","","","","","","","","","",""
"null","","image-button-response","214","1881286","0.0-211.0","AMVBT3XDCQBHI","img_art/1.jpg","null","","","","","","","","","","","","","","","","","","","","","","","","",""
"1575","","image-button-response","215","1882865","0.0-212.0","AMVBT3XDCQBHI","img_art/1.jpg","5","","","","","","","","","","","","","","","","","","","","","","","","",""
"2259","","image-button-response","216","1885128","0.0-213.0-0.0","AMVBT3XDCQBHI","img_art/1.jpg","3","","","","","","","","","","","","","","","","","","","","","","","","",""
"17887","","image-button-response","217","1903019","0.0-214.0-0.0","AMVBT3XDCQBHI","img_art/1.jpg","2","","","","","","","","","","","","","","","","","","","","","","","","",""
"null","","html-keyboard-response","218","1904533","0.0-215.0","AMVBT3XDCQBHI","<p style=""font-size: 48px;"">+</p>","","","","","null","allTrialResponses","1500","1","24","img_art/1.jpg","-36","breakup","Spencer,James,Logan,Jared,Samuel,Alex","Pretty intermeshing of colors, happy,32,120,20","It's very colorful, and I like it,11,380,20","looks like an earlier painting. I wish I gave it -20 but oh well,21,360,20","there isnt anything clear to look at,-2,400,20","feels like there is meaning,9,400,20","Random paint does not make art,-5,100,20","Alex","Random paint does not make art,-5,100,20","Jared","there isnt anything clear to look at,-2,400,20","Logan","looks like an earlier painting. I wish I gave it -20 but oh well,21,360,20","2"
"9535","","survey-text","219","1914079","0.0-216.0-0.0","AMVBT3XDCQBHI","","","","{""Q0"":""bassist""}","","","","","","","","","","","","","","","","","","","","","","",""
"6845","","image-slider-response","220","1920927","0.0-217.0","AMVBT3XDCQBHI","","","","","-40","","","","","","","","","","","","","","","","","","","","","",""
"null","","image-button-response","221","1925930","0.0-218.0","AMVBT3XDCQBHI","img_art/10.jpg","null","","","","","","","","","","","","","","","","","","","","","","","","",""
"1398","","image-button-response","222","1927333","0.0-219.0","AMVBT3XDCQBHI","img_art/10.jpg","3","","","","","","","","","","","","","","","","","","","","","","","","",""
"2368","","image-button-response","223","1929705","0.0-220.0-0.0","AMVBT3XDCQBHI","img_art/10.jpg","5","","","","","","","","","","","","","","","","","","","","","","","","",""
"6134","","image-button-response","224","1935844","0.0-221.0-0.0","AMVBT3XDCQBHI","img_art/10.jpg","1","","","","","","","","","","","","","","","","","","","","","","","","",""
"null","","html-keyboard-response","225","1937352","0.0-222.0","AMVBT3XDCQBHI","<p style=""font-size: 48px;"">+</p>","","","","","null","allTrialResponses","1500","1","25","img_art/10.jpg","-40","bassist","Jack,Victor,Logan,Jared,Gabriel,Alex","this piece is okay. I wish it was more colorful, but it is certainly intriguing.,23,320,20","Looks like someone just smeared some paint and called it good. Do not like.,-6,340,20","The more I look the more I like. Reminds me of a rollercoaster and a war scene. A lot going on which is unnerving, like a rollercoaster but still fun,22,360,20","it just doesnt appeal to me.,-10,400,20","reminds me of a violin,9,160,20","This could be a guitar, or it could be a completely random shape.,-3,100,20","Jared","it just doesnt appeal to me.,-10,400,20","Alex","This could be a guitar, or it could be a completely random shape.,-3,100,20","Victor","Looks like someone just smeared some paint and called it good. Do not like.,-6,340,20","2"
"7113","","survey-text","226","1944495","0.0-223.0-0.0","AMVBT3XDCQBHI","","","","{""Q0"":""table""}","","","","","","","","","","","","","","","","","","","","","","",""
"19498","","survey-text","227","1963995","0.0-224.0-0.0","AMVBT3XDCQBHI","","","","{""Q0"":""gotham""}","","","","","","","","","","","","","","","","","","","","","","",""
"6502.600000023842","","image-slider-response","228","1970500","0.0-225.0","AMVBT3XDCQBHI","","","","","-46","","","","","","","","","","","","","","","","","","","","","",""
"null","","image-button-response","229","1975503","0.0-226.0","AMVBT3XDCQBHI","img_art/8.jpg","null","","","","","","","","","","","","","","","","","","","","","","","","",""
"1812","","image-button-response","230","1977319","0.0-227.0","AMVBT3XDCQBHI","img_art/8.jpg","5","","","","","","","","","","","","","","","","","","","","","","","","",""
"16975","","image-button-response","231","1994296","0.0-228.0-0.0","AMVBT3XDCQBHI","img_art/8.jpg","4","","","","","","","","","","","","","","","","","","","","","","","","",""
"7639","","image-button-response","232","2001938","0.0-229.0-0.0","AMVBT3XDCQBHI","img_art/8.jpg","0","","","","","","","","","","","","","","","","","","","","","","","","",""
"null","","html-keyboard-response","233","2002455","0.0-230.0","AMVBT3XDCQBHI","<p style=""font-size: 48px;"">+</p>","","","","","null","allTrialResponses","500","1","26","img_art/8.jpg","-46","gotham","Matthew,Victor,Kenneth,Jared,Brandon,Alex","Escher? Dali? Could be their lovechild?,50,120,20","I like the colors,10,340,20","Interesting, i really like the face and the moon. Realy detailed and you see something new with each look.,11,300,20","i love the colors, the church and the face,42,400,20","Reminds me of old 80s fantasy book covers. Nostalgic,23,320,20","I appreciate the complexity of this piece but it's too cubist for me,3,100,20","Alex","I appreciate the complexity of this piece but it's too cubist for me,3,100,20","Brandon","Reminds me of old 80s fantasy book covers. Nostalgic,23,320,20","Matthew","Escher? Dali? Could be their lovechild?,50,120,20","2"
"17635","","survey-text","234","2020109","0.0-231.0-0.0","AMVBT3XDCQBHI","","","","{""Q0"":""curtains""}","","","","","","","","","","","","","","","","","","","","","","",""
"6238","","image-slider-response","235","2026353","0.0-232.0","AMVBT3XDCQBHI","","","","","-41","","","","","","","","","","","","","","","","","","","","","",""
"null","","image-button-response","236","2031358","0.0-233.0","AMVBT3XDCQBHI","img_art/30.jpg","null","","","","","","","","","","","","","","","","","","","","","","","","",""
"2260","","image-button-response","237","2033622","0.0-234.0","AMVBT3XDCQBHI","img_art/30.jpg","4","","","","","","","","","","","","","","","","","","","","","","","","",""
"2984","","image-button-response","238","2036610","0.0-235.0-0.0","AMVBT3XDCQBHI","img_art/30.jpg","5","","","","","","","","","","","","","","","","","","","","","","","","",""
"7206","","image-button-response","239","2043820","0.0-236.0-0.0","AMVBT3XDCQBHI","img_art/30.jpg","1","","","","","","","","","","","","","","","","","","","","","","","","",""
"null","","html-keyboard-response","240","2044823","0.0-237.0","AMVBT3XDCQBHI","<p style=""font-size: 48px;"">+</p>","","","","","null","allTrialResponses","1000","1","27","img_art/30.jpg","-41","curtains","Matthew,Peter,Jacob,Scott,Brandon,Alex","Decent abstract art, ncie colors.,23,120,20","I feel nothing towards,-1,320,20","Looks cool , but no meaning,1,340,20","nothing special about it,1,20,20","Too abstract, looks like something I could paint,-50,320,20","Don't like it at all, looks like a someone smeared paint with their fingers,-25,100,20","Brandon","Too abstract, looks like something I could paint,-50,320,20","Alex","Don't like it at all, looks like a someone smeared paint with their fingers,-25,100,20","Peter","I feel nothing towards,-1,320,20","2"
"14742","","survey-text","241","2059586","0.0-238.0-0.0","AMVBT3XDCQBHI","","","","{""Q0"":""bits and pieces""}","","","","","","","","","","","","","","","","","","","","","","",""
"7266.5","","image-slider-response","242","2066855","0.0-239.0","AMVBT3XDCQBHI","","","","","-35","","","","","","","","","","","","","","","","","","","","","",""
"null","","image-button-response","243","2071858","0.0-240.0","AMVBT3XDCQBHI","img_art/25.jpg","null","","","","","","","","","","","","","","","","","","","","","","","","",""
"206","","image-button-response","244","2072067","0.0-241.0","AMVBT3XDCQBHI","img_art/25.jpg","0","","","","","","","","","","","","","","","","","","","","","","","","",""
"2417","","image-button-response","245","2074486","0.0-242.0-0.0","AMVBT3XDCQBHI","img_art/25.jpg","1","","","","","","","","","","","","","","","","","","","","","","","","",""
"6198","","image-button-response","246","2080688","0.0-243.0-0.0","AMVBT3XDCQBHI","img_art/25.jpg","5","","","","","","","","","","","","","","","","","","","","","","","","",""
"null","","html-keyboard-response","247","2081201","0.0-244.0","AMVBT3XDCQBHI","<p style=""font-size: 48px;"">+</p>","","","","","null","allTrialResponses","500","1","28","img_art/25.jpg","-35","bits and pieces","Hunter,Peter,Grant,Christopher,Brandon,Alex","do not like that color of green,-11,240,20","It's very mystical.,5,320,20","I feel like I'm looking at something larger than myself.,30,200,20","green is really cool, and the pieces in black fit together and are interesting,20,160,20","Reminds me of cave drawings,21,320,20","I can get behind this but only because I like the green. it reminds me of a graveyard,11,100,20","Hunter","do not like that color of green,-11,240,20","Peter","It's very mystical.,5,320,20","Alex","I can get behind this but only because I like the green. it reminds me of a graveyard,11,100,20","2"
"22497","","survey-text","248","2103714","0.0-245.0-0.0","AMVBT3XDCQBHI","","","","{""Q0"":""upside down""}","","","","","","","","","","","","","","","","","","","","","","",""
"6571.200000017881","","image-slider-response","249","2110288","0.0-246.0","AMVBT3XDCQBHI","","","","","-39","","","","","","","","","","","","","","","","","","","","","",""
"3515","","image-button-response","250","2115302","0.0-247.0","AMVBT3XDCQBHI","img_art/12.jpg","1","","","","","","","","","","","","","","","","","","","","","","","","",""
"2035","","image-button-response","251","2117341","0.0-248.0","AMVBT3XDCQBHI","img_art/12.jpg","3","","","","","","","","","","","","","","","","","","","","","","","","",""
"5964","","image-button-response","252","2123307","0.0-249.0-0.0","AMVBT3XDCQBHI","img_art/12.jpg","5","","","","","","","","","","","","","","","","","","","","","","","","",""
"4592","","image-button-response","253","2127902","0.0-250.0-0.0","AMVBT3XDCQBHI","img_art/12.jpg","1","","","","","","","","","","","","","","","","","","","","","","","","",""
"null","","html-keyboard-response","254","2128913","0.0-251.0","AMVBT3XDCQBHI","<p style=""font-size: 48px;"">+</p>","","","","","null","allTrialResponses","1000","1","29","img_art/12.jpg","-39","upside down","Hunter,Peter,Bryan,Richard,Marcus,Alex","reminds me of a dixie cup,3,240,20","Reminds me Early 2000's decor, don't favor it,-10,320,20","Love the colors & the abstractness.,31,400,20","seems too dark on top and too common on the bottom,-19,340,20","I like the colors in the bottom half of the painting,10,60,20","eww hate everything about this, looks like it belongs in a dentist's office,-14,100,20","Richard","seems too dark on top and too common on the bottom,-19,340,20","Alex","eww hate everything about this, looks like it belongs in a dentist's office,-14,100,20","Peter","Reminds me Early 2000's decor, don't favor it,-10,320,20","2"
"10265","","survey-text","255","2139196","0.0-252.0-0.0","AMVBT3XDCQBHI","","","","{""Q0"":""just too busy""}","","","","","","","","","","","","","","","","","","","","","","",""
"3788.2000000178814","","image-slider-response","256","2142992","0.0-253.0","AMVBT3XDCQBHI","","","","","-40","","","","","","","","","","","","","","","","","","","","","",""
"null","","image-button-response","257","2147996","0.0-254.0","AMVBT3XDCQBHI","img_art/18.jpg","null","","","","","","","","","","","","","","","","","","","","","","","","",""
"1645","","image-button-response","258","2149644","0.0-255.0","AMVBT3XDCQBHI","img_art/18.jpg","5","","","","","","","","","","","","","","","","","","","","","","","","",""
"4895","","image-button-response","259","2154541","0.0-256.0-0.0","AMVBT3XDCQBHI","img_art/18.jpg","1","","","","","","","","","","","","","","","","","","","","","","","","",""
"3367","","image-button-response","260","2157911","0.0-257.0-0.0","AMVBT3XDCQBHI","img_art/18.jpg","0","","","","","","","","","","","","","","","","","","","","","","","","",""
"null","","html-keyboard-response","261","2158915","0.0-258.0","AMVBT3XDCQBHI","<p style=""font-size: 48px;"">+</p>","","","","","null","allTrialResponses","1000","1","30","img_art/18.jpg","-40","just too busy","William,Peter,John,Richard,Alexander,Alex","Makes me think of stormy oceans,20,380,20","I'm not partial to the design, unsettling,2,320,20","There are alot of elements to this painting and a good mix of colors,32,120,20","interesting piece, I like the horse and people inserted in spots,22,340,20","Ghostly sea adventure.,20,120,20","The small lines elicit a very nauseating response for some reason, too Dali like for me,-19,100,20","Alex","The small lines elicit a very nauseating response for some reason, too Dali like for me,-19,100,20","Peter","I'm not partial to the design, unsettling,2,320,20","William","Makes me think of stormy oceans,20,380,20","2"
"6326","","image-button-response_instructions","262","2165259","0.0-259.0","AMVBT3XDCQBHI","","0","instructions","","","","","","","","","","","","","","","","","","","","","","","",""
"3048","","image-button-response","263","2168315","0.0-260.0","AMVBT3XDCQBHI","","0","","","","","","","","","","","","","","","","","","","","","","","","",""
