"rt","url","trial_type","trial_index","time_elapsed","internal_node_id","participant_id","stimulus","button_pressed","Name","responses","response","key_press","variableName","fixationTime","condition","trial","photo","subjectRating","subjectResponse","agentsNames","agent_1_Response","agent_2_Response","agent_3_Response","agent_4_Response","agent_5_Response","agent_6_Response","kept_1_name","kept_1_response","kept_2_name","kept_2_response","kept_3_name","kept_3_response","errorCounter"
"16569","external_page_harvard.html","external-html","0","16698","0.0-0.0","AP9WIQ4P78XLH","","","","","","","","","","","","","","","","","","","","","","","","","","",""
"2213","","image-button-response","1","18919","0.0-1.0","AP9WIQ4P78XLH","","0","","","","","","","","","","","","","","","","","","","","","","","","",""
"2870","","image-button-response","2","21806","0.0-2.0-0.0","AP9WIQ4P78XLH","","1","phone","","","","","","","","","","","","","","","","","","","","","","","",""
"5172","","survey-text","3","26982","0.0-3.0-0.0","AP9WIQ4P78XLH","","","","{""Q0"":""AP9WIQ4P78XLH""}","","","","","","","","","","","","","","","","","","","","","","",""
"6712","","image-button-response_instructions","4","33699","0.0-4.0","AP9WIQ4P78XLH","","0","instructions","","","","","","","","","","","","","","","","","","","","","","","",""
"10609","","image-button-response_instructions","5","44310","0.0-5.0","AP9WIQ4P78XLH","img_art/ins/popularity/ins1.png","0","instructions","","","","","","","","","","","","","","","","","","","","","","","",""
"4548","","image-button-response_instructions","6","48861","0.0-6.0","AP9WIQ4P78XLH","img_art/ins/popularity/ins2.png","0","instructions","","","","","","","","","","","","","","","","","","","","","","","",""
"3819","","image-button-response_instructions","7","52683","0.0-7.0","AP9WIQ4P78XLH","img_art/ins/popularity/ins2Extreme.png","0","instructions","","","","","","","","","","","","","","","","","","","","","","","",""
"10208","","image-button-response_instructions","8","62894","0.0-8.0","AP9WIQ4P78XLH","img_art/ins/popularity/ins3KEEPpop.PNG","0","instructions","","","","","","","","","","","","","","","","","","","","","","","",""
"2268","","image-button-response_instructions","9","65166","0.0-9.0","AP9WIQ4P78XLH","img_art/ins/popularity/ins3ANamepop.PNG","0","instructions","","","","","","","","","","","","","","","","","","","","","","","",""
"2271","","image-button-response_instructions","10","67440","0.0-10.0","AP9WIQ4P78XLH","img_art/ins/popularity/ins3ARatingpop.png","0","instructions","","","","","","","","","","","","","","","","","","","","","","","",""
"4350","","image-button-response_instructions","11","71794","0.0-11.0","AP9WIQ4P78XLH","img_art/ins/popularity/ins3ATextpop.png","0","instructions","","","","","","","","","","","","","","","","","","","","","","","",""
"7358","","image-button-response_instructions","12","79158","0.0-12.0","AP9WIQ4P78XLH","img_art/ins/popularity/ins3ALikespop.png","0","instructions","","","","","","","","","","","","","","","","","","","","","","","",""
"6602","","image-button-response_instructions","13","85766","0.0-13.0","AP9WIQ4P78XLH","img_art/ins/popularity/ins3KEEPpop.PNG","0","instructions","","","","","","","","","","","","","","","","","","","","","","","",""
"6104","","image-button-response_instructions","14","91874","0.0-14.0","AP9WIQ4P78XLH","img_art/ins/popularity/ins3_5RED.png","0","instructions","","","","","","","","","","","","","","","","","","","","","","","",""
"3593","","image-button-response_instructions","15","95469","0.0-15.0","AP9WIQ4P78XLH","img_art/ins/popularity/ins3KEEPpop.PNG","0","instructions","","","","","","","","","","","","","","","","","","","","","","","",""
"8661","","image-button-response_instructions","16","104133","0.0-16.0","AP9WIQ4P78XLH","img_art/ins/popularity/ins4KEEPpop.PNG","0","instructions","","","","","","","","","","","","","","","","","","","","","","","",""
"2902","","image-button-response_instructions","17","107039","0.0-17.0","AP9WIQ4P78XLH","img_art/ins/popularity/ins5KEEPpop.PNG","0","instructions","","","","","","","","","","","","","","","","","","","","","","","",""
"1612","","image-button-response_instructions","18","108653","0.0-18.0","AP9WIQ4P78XLH","","0","instructions","","","","","","","","","","","","","","","","","","","","","","","",""
"4657","","survey-text","19","113365","0.0-19.0-0.0","AP9WIQ4P78XLH","","","","{""Q0"":""but""}","","","","","","","","","","","","","","","","","","","","","","",""
"21986","","survey-text","20","135356","0.0-20.0-0.0","AP9WIQ4P78XLH","","","","{""Q0"":""Looks like a hillside next to a lake at sunset.""}","","","","","","","","","","","","","","","","","","","","","","",""
"3564","","image-slider-response","21","138933","0.0-21.0","AP9WIQ4P78XLH","","","","","18","","","","","","","","","","","","","","","","","","","","","",""
"null","","image-button-response","22","143944","0.0-22.0","AP9WIQ4P78XLH","img_art/ins/1.jpg","null","","","","","","","","","","","","","","","","","","","","","","","","",""
"6246","","image-button-response","23","150192","0.0-23.0","AP9WIQ4P78XLH","img_art/ins/1.jpg","5","","","","","","","","","","","","","","","","","","","","","","","","",""
"6856","","image-button-response","24","157054","0.0-24.0-0.0","AP9WIQ4P78XLH","img_art/ins/1.jpg","3","","","","","","","","","","","","","","","","","","","","","","","","",""
"7591","","image-button-response","25","164652","0.0-25.0-0.0","AP9WIQ4P78XLH","img_art/ins/1.jpg","0","","","","","","","","","","","","","","","","","","","","","","","","",""
"null","","html-keyboard-response","26","165659","0.0-26.0","AP9WIQ4P78XLH","<p style=""font-size: 48px;"">+</p>","","","","","null","allTrialResponses","1000","1","-2","img_art/ins/1.jpg","18","Looks like a hillside next to a lake at sunset.","Adam,Alex,Ben,Carl,Daniel,Jack","Seems like doodles,-20,20,20","very creative work.,36,40,20","This color reminds me of poo,-46,60,20","very calming artwork,42,80,20","It looks like a murder scene.,-48,100,20","I like the sophisticated brushwork,40,120,20","Jack","I like the sophisticated brushwork,40,120,20","Carl","very calming artwork,42,80,20","Adam","Seems like doodles,-20,20,20","0"
"30152","","survey-text","27","195828","0.0-27.0-0.0","AP9WIQ4P78XLH","","","","{""Q0"":""Interesting textured mixed media piece with heavy strokes.""}","","","","","","","","","","","","","","","","","","","","","","",""
"3815","","image-slider-response","28","199647","0.0-28.0","AP9WIQ4P78XLH","","","","","10","","","","","","","","","","","","","","","","","","","","","",""
"2778","","image-button-response","29","204654","0.0-29.0","AP9WIQ4P78XLH","img_art/ins/2.jpg","4","","","","","","","","","","","","","","","","","","","","","","","","",""
"1244","","image-button-response","30","205901","0.0-30.0","AP9WIQ4P78XLH","img_art/ins/2.jpg","4","","","","","","","","","","","","","","","","","","","","","","","","",""
"9651","","image-button-response","31","215557","0.0-31.0-0.0","AP9WIQ4P78XLH","img_art/ins/2.jpg","3","","","","","","","","","","","","","","","","","","","","","","","","",""
"899","","image-button-response","32","216460","0.0-32.0-0.0","AP9WIQ4P78XLH","img_art/ins/2.jpg","5","","","","","","","","","","","","","","","","","","","","","","","","",""
"null","","html-keyboard-response","33","217965","0.0-33.0","AP9WIQ4P78XLH","<p style=""font-size: 48px;"">+</p>","","","","","null","allTrialResponses","1500","1","-1","img_art/ins/2.jpg","10","Interesting textured mixed media piece with heavy strokes.","Adam,James,Kyle,Carl,John,Jack","too much color,-18,20,20","looks too angry,-50,140,20","Idk, it is just annoying,-32,180,20","I can feel the artist's passion in it,45,80,20","love the texture of paint,48,160,20","I would never be able to compose a sophisticated pallete like this,48,120,20","John","love the texture of paint,48,160,20","Carl","I can feel the artist's passion in it,45,80,20","Jack","I would never be able to compose a sophisticated pallete like this,48,120,20","0"
"36091","","survey-text","34","254069","0.0-34.0-0.0","AP9WIQ4P78XLH","","","","{""Q0"":""Gorgeous and wistful piece; a nostalgic rainy day from childhood.""}","","","","","","","","","","","","","","","","","","","","","","",""
"3642","","image-slider-response","35","257716","0.0-35.0","AP9WIQ4P78XLH","","","","","41","","","","","","","","","","","","","","","","","","","","","",""
"null","","image-button-response","36","262721","0.0-36.0","AP9WIQ4P78XLH","img_art/ins/3.jpg","null","","","","","","","","","","","","","","","","","","","","","","","","",""
"2784","","image-button-response","37","265508","0.0-37.0","AP9WIQ4P78XLH","img_art/ins/3.jpg","1","","","","","","","","","","","","","","","","","","","","","","","","",""
"2677","","image-button-response","38","268189","0.0-38.0-0.0","AP9WIQ4P78XLH","img_art/ins/3.jpg","5","","","","","","","","","","","","","","","","","","","","","","","","",""
"8314","","image-button-response","39","276507","0.0-39.0-0.0","AP9WIQ4P78XLH","img_art/ins/3.jpg","4","","","","","","","","","","","","","","","","","","","","","","","","",""
"null","","html-keyboard-response","40","278009","0.0-40.0","AP9WIQ4P78XLH","<p style=""font-size: 48px;"">+</p>","","","","","null","allTrialResponses","1500","1","0","img_art/ins/3.jpg","41","Gorgeous and wistful piece; a nostalgic rainy day from childhood.","Mike,Sam,Ron,Carl,John,Jack","enjoy the different shades of blue,22,200,20","I can feel a rainy day from this painting,18,240,20","It looks depressing,-26,220,20","It's an alright work,15,80,20","I like the overlapping of brushes,41,160,20","I feel connected to the artist,40,120,20","Sam","I can feel a rainy day from this painting,18,240,20","Jack","I feel connected to the artist,40,120,20","John","I like the overlapping of brushes,41,160,20","0"
"6374","","image-button-response_instructions","41","284396","0.0-41.0","AP9WIQ4P78XLH","","0","instructions","","","","","","","","","","","","","","","","","","","","","","","",""
"8533","","survey-likert","42","292933","0.0-42.0-0.0","AP9WIQ4P78XLH","","","","{""Q0"":"""",""Q1"":0,""Q2"":1}","","","","","","","","","","","","","","","","","","","","","","",""
"5156","","survey-text","43","298099","0.0-43.0-0.0","AP9WIQ4P78XLH","","","","{""Q0"":""rock""}","","","","","","","","","","","","","","","","","","","","","","",""
"51775","","survey-text","44","349879","0.0-44.0-0.0","AP9WIQ4P78XLH","","","","{""Q0"":""Somewhat disjointed and boldly frightening.""}","","","","","","","","","","","","","","","","","","","","","","",""
"2410","","image-slider-response","45","352292","0.0-45.0","AP9WIQ4P78XLH","","","","","-5","","","","","","","","","","","","","","","","","","","","","",""
"4822","","image-button-response","46","357334","0.0-46.0","AP9WIQ4P78XLH","img_art/15.jpg","2","","","","","","","","","","","","","","","","","","","","","","","","",""
"922","","image-button-response","47","358260","0.0-47.0","AP9WIQ4P78XLH","img_art/15.jpg","2","","","","","","","","","","","","","","","","","","","","","","","","",""
"5679","","image-button-response","48","363944","0.0-48.0-0.0","AP9WIQ4P78XLH","img_art/15.jpg","3","","","","","","","","","","","","","","","","","","","","","","","","",""
"7210","","image-button-response","49","371159","0.0-49.0-0.0","AP9WIQ4P78XLH","img_art/15.jpg","0","","","","","","","","","","","","","","","","","","","","","","","","",""
"null","","html-keyboard-response","50","372165","0.0-50.0","AP9WIQ4P78XLH","<p style=""font-size: 48px;"">+</p>","","","","","null","allTrialResponses","1000","1","1","img_art/15.jpg","-5","Somewhat disjointed and boldly frightening.","Gregory,Travis,Angel,Noah,Devin,Jeremy","Black and blue is my favorite color combination,35,220,20","Hate it...black dots.,-47,260,20","This is looking at a forest from above. I can see water and some pathways throughout. Nature.,20,180,20","i enjoy its apaprent simplicity (of colour and shape),32,260,20","Simple but needs some more detail somehow,-3,380,20","I feel nothing when looking at this,1,60,20","Angel","This is looking at a forest from above. I can see water and some pathways throughout. Nature.,20,180,20","Noah","i enjoy its apaprent simplicity (of colour and shape),32,260,20","Gregory","Black and blue is my favorite color combination,35,220,20","0"
"17089","","survey-text","51","389265","0.0-51.0-0.0","AP9WIQ4P78XLH","","","","{""Q0"":""Reminds me of the Japanese wave crash painting.""}","","","","","","","","","","","","","","","","","","","","","","",""
"4424","","image-slider-response","52","393691","0.0-52.0","AP9WIQ4P78XLH","","","","","16","","","","","","","","","","","","","","","","","","","","","",""
"null","","image-button-response","53","398696","0.0-53.0","AP9WIQ4P78XLH","img_art/18.jpg","null","","","","","","","","","","","","","","","","","","","","","","","","",""
"3098","","image-button-response","54","401796","0.0-54.0","AP9WIQ4P78XLH","img_art/18.jpg","2","","","","","","","","","","","","","","","","","","","","","","","","",""
"32971","","image-button-response","55","434770","0.0-55.0-0.0","AP9WIQ4P78XLH","img_art/18.jpg","3","","","","","","","","","","","","","","","","","","","","","","","","",""
"4455","","image-button-response","56","439227","0.0-56.0-0.0","AP9WIQ4P78XLH","img_art/18.jpg","5","","","","","","","","","","","","","","","","","","","","","","","","",""
"null","","html-keyboard-response","57","440232","0.0-57.0","AP9WIQ4P78XLH","<p style=""font-size: 48px;"">+</p>","","","","","null","allTrialResponses","1000","1","2","img_art/18.jpg","16","Reminds me of the Japanese wave crash painting.","Gregory,Logan,Angel,Noah,Cody,Scott","Mash up of colors and don't see a grander picture,-10,220,20","Can't tell if I love it or hate it. That response warranted more than neutral so I gave it 20 but not sure,21,360,20","Like riding into battle. A sense of confidence, but also trepidation for what's coming. Could be a personification of death.,-10,180,20","enjoy the juxtaposition of abstract with tangible elements & the use of color,10,260,20","Vaguely creepy ........,-20,180,20","reminds me of sailors on a boat,17,20,20","Angel","Like riding into battle. A sense of confidence, but also trepidation for what's coming. Could be a personification of death.,-10,180,20","Noah","enjoy the juxtaposition of abstract with tangible elements & the use of color,10,260,20","Scott","reminds me of sailors on a boat,17,20,20","0"
"56137","","survey-text","58","496379","0.0-58.0-0.0","AP9WIQ4P78XLH","","","","{""Q0"":""It's a Tarot card, one of the royal cards.""}","","","","","","","","","","","","","","","","","","","","","","",""
"3206","","image-slider-response","59","499590","0.0-59.0","AP9WIQ4P78XLH","","","","","37","","","","","","","","","","","","","","","","","","","","","",""
"null","","image-button-response","60","504596","0.0-60.0","AP9WIQ4P78XLH","img_art/25.jpg","null","","","","","","","","","","","","","","","","","","","","","","","","",""
"750","","image-button-response","61","505348","0.0-61.0","AP9WIQ4P78XLH","img_art/25.jpg","2","","","","","","","","","","","","","","","","","","","","","","","","",""
"6108","","image-button-response","62","511459","0.0-62.0-0.0","AP9WIQ4P78XLH","img_art/25.jpg","0","","","","","","","","","","","","","","","","","","","","","","","","",""
"10491","","image-button-response","63","521955","0.0-63.0-0.0","AP9WIQ4P78XLH","img_art/25.jpg","5","","","","","","","","","","","","","","","","","","","","","","","","",""
"null","","html-keyboard-response","64","523459","0.0-64.0","AP9WIQ4P78XLH","<p style=""font-size: 48px;"">+</p>","","","","","null","allTrialResponses","1500","1","3","img_art/25.jpg","37","It's a Tarot card, one of the royal cards.","Jack,Jeffrey,Angel,Noah,William,Scott","beautiful in a primitive way,10,320,20","reminds me of a demon,-25,40,20","I feel uneasy. Like watching someone powerful ready to perform a ritual, but I don't know their intentions.,-10,180,20","I find it enjoyable - mainly because it is not art I ever expected to see,16,260,20","makes me think of a scary movie,-20,380,20","reminds me of a zombie,-36,20,20","Angel","I feel uneasy. Like watching someone powerful ready to perform a ritual, but I don't know their intentions.,-10,180,20","Jack","beautiful in a primitive way,10,320,20","Scott","reminds me of a zombie,-36,20,20","0"
"39896","","survey-text","65","563371","0.0-65.0-0.0","AP9WIQ4P78XLH","","","","{""Q0"":""Textured amd rough, almost could be part of a building.""}","","","","","","","","","","","","","","","","","","","","","","",""
"6339","","image-slider-response","66","569714","0.0-66.0","AP9WIQ4P78XLH","","","","","13","","","","","","","","","","","","","","","","","","","","","",""
"null","","image-button-response","67","574719","0.0-67.0","AP9WIQ4P78XLH","img_art/7.jpg","null","","","","","","","","","","","","","","","","","","","","","","","","",""
"10146","","image-button-response","68","584867","0.0-68.0","AP9WIQ4P78XLH","img_art/7.jpg","2","","","","","","","","","","","","","","","","","","","","","","","","",""
"7859","","image-button-response","69","592730","0.0-69.0-0.0","AP9WIQ4P78XLH","img_art/7.jpg","3","","","","","","","","","","","","","","","","","","","","","","","","",""
"3209","","image-button-response","70","595944","0.0-70.0-0.0","AP9WIQ4P78XLH","img_art/7.jpg","5","","","","","","","","","","","","","","","","","","","","","","","","",""
"null","","html-keyboard-response","71","596445","0.0-71.0","AP9WIQ4P78XLH","<p style=""font-size: 48px;"">+</p>","","","","","null","allTrialResponses","500","1","4","img_art/7.jpg","13","Textured amd rough, almost could be part of a building.","Jack,Anthony,Angel,Robert,Kevin,Scott","reminds me of a desert from far above,23,320,20","Very, very dull compared to the other paintings,-36,200,20","It's off-putting because it reminds me of walking over rough sand/rocks or having scabs on my skin.,-10,180,20","This looks muddy and stomped on. I think of destruction.,-50,360,20","That a desert floor,16,320,20","I don't like the texture,-49,20,20","Angel","It's off-putting because it reminds me of walking over rough sand/rocks or having scabs on my skin.,-10,180,20","Robert","This looks muddy and stomped on. I think of destruction.,-50,360,20","Scott","I don't like the texture,-49,20,20","0"
"36560","","survey-text","72","633017","0.0-72.0-0.0","AP9WIQ4P78XLH","","","","{""Q0"":""A surfer on his surfboard.""}","","","","","","","","","","","","","","","","","","","","","","",""
"3765","","image-slider-response","73","636786","0.0-73.0","AP9WIQ4P78XLH","","","","","28","","","","","","","","","","","","","","","","","","","","","",""
"null","","image-button-response","74","641791","0.0-74.0","AP9WIQ4P78XLH","img_art/13.jpg","null","","","","","","","","","","","","","","","","","","","","","","","","",""
"1930","","image-button-response","75","643724","0.0-75.0","AP9WIQ4P78XLH","img_art/13.jpg","3","","","","","","","","","","","","","","","","","","","","","","","","",""
"3546","","image-button-response","76","647274","0.0-76.0-0.0","AP9WIQ4P78XLH","img_art/13.jpg","4","","","","","","","","","","","","","","","","","","","","","","","","",""
"3794","","image-button-response","77","651073","0.0-77.0-0.0","AP9WIQ4P78XLH","img_art/13.jpg","1","","","","","","","","","","","","","","","","","","","","","","","","",""
"null","","html-keyboard-response","78","652075","0.0-78.0","AP9WIQ4P78XLH","<p style=""font-size: 48px;"">+</p>","","","","","null","allTrialResponses","1000","1","5","img_art/13.jpg","28","A surfer on his surfboard.","Alejandro,Corey,Angel,Robert,David,Scott","Reminiscent of Jackson Pollock and gives me a feeling of chaotic satisfaction,50,80,20","i like the splatters and the colors,21,260,20","Reminds me of depression anxiety, but negativity is dampened by motion. It's trying to release itself through expression.,-10,180,20","Raindrops splashing on the window.,50,360,20","I like the color coordination between the foreground and background.,10,340,20","I like the transition to other colors,24,20,20","Robert","Raindrops splashing on the window.,50,360,20","David","I like the color coordination between the foreground and background.,10,340,20","Corey","i like the splatters and the colors,21,260,20","0"
"5933","","survey-text","79","658030","0.0-79.0-0.0","AP9WIQ4P78XLH","","","","{""Q0"":""sky""}","","","","","","","","","","","","","","","","","","","","","","",""
"32666","","survey-text","80","690700","0.0-80.0-0.0","AP9WIQ4P78XLH","","","","{""Q0"":""This could be a Radiohead album cover.""}","","","","","","","","","","","","","","","","","","","","","","",""
"5003","","image-slider-response","81","695708","0.0-81.0","AP9WIQ4P78XLH","","","","","33","","","","","","","","","","","","","","","","","","","","","",""
"null","","image-button-response","82","700713","0.0-82.0","AP9WIQ4P78XLH","img_art/5.jpg","null","","","","","","","","","","","","","","","","","","","","","","","","",""
"1488","","image-button-response","83","702202","0.0-83.0","AP9WIQ4P78XLH","img_art/5.jpg","4","","","","","","","","","","","","","","","","","","","","","","","","",""
"924","","image-button-response","84","703129","0.0-84.0-0.0","AP9WIQ4P78XLH","img_art/5.jpg","1","","","","","","","","","","","","","","","","","","","","","","","","",""
"1100","","image-button-response","85","704234","0.0-85.0-0.0","AP9WIQ4P78XLH","img_art/5.jpg","5","","","","","","","","","","","","","","","","","","","","","","","","",""
"null","","html-keyboard-response","86","705738","0.0-86.0","AP9WIQ4P78XLH","<p style=""font-size: 48px;"">+</p>","","","","","null","allTrialResponses","1500","1","6","img_art/5.jpg","33","This could be a Radiohead album cover.","Benjamin,Corey,Thomas,Robert,David,Matthew","Missing something,-5,260,20","simple. love the color scheme,27,260,20","I'm confused by what I am looking at,-3,220,20","This did not do a thing for me.,-50,360,20","I like the simplicity of the design, but I can't tell what the image is trying to depict.,10,340,20","I like the simple shapes and colors.,23,120,20","David","I like the simplicity of the design, but I can't tell what the image is trying to depict.,10,340,20","Corey","simple. love the color scheme,27,260,20","Matthew","I like the simple shapes and colors.,23,120,20","0"
"16260","","survey-text","87","722009","0.0-87.0-0.0","AP9WIQ4P78XLH","","","","{""Q0"":""Warm and inviting with keys hinting at more secrets.""}","","","","","","","","","","","","","","","","","","","","","","",""
"2634","","image-slider-response","88","724647","0.0-88.0","AP9WIQ4P78XLH","","","","","35","","","","","","","","","","","","","","","","","","","","","",""
"null","","image-button-response","89","729649","0.0-89.0","AP9WIQ4P78XLH","img_art/22.jpg","null","","","","","","","","","","","","","","","","","","","","","","","","",""
"6805","","image-button-response","90","736456","0.0-90.0","AP9WIQ4P78XLH","img_art/22.jpg","0","","","","","","","","","","","","","","","","","","","","","","","","",""
"1497","","image-button-response","91","737954","0.0-91.0-0.0","AP9WIQ4P78XLH","img_art/22.jpg","2","","","","","","","","","","","","","","","","","","","","","","","","",""
"1298","","image-button-response","92","739258","0.0-92.0-0.0","AP9WIQ4P78XLH","img_art/22.jpg","3","","","","","","","","","","","","","","","","","","","","","","","","",""
"null","","html-keyboard-response","93","740761","0.0-93.0","AP9WIQ4P78XLH","<p style=""font-size: 48px;"">+</p>","","","","","null","allTrialResponses","1500","1","7","img_art/22.jpg","35","Warm and inviting with keys hinting at more secrets.","Colton,Corey,Justin,Christian,David,Matthew","I enjoy the colors used,24,220,20","i feel like this is a a basic art piece that a school would have on the wall,-24,260,20","It reminds me of sunsets and dusks.,22,280,20","colorful water (in front of castle?),17,140,20","This doesn't invoke anything, since I can't tell what the piece represents.,0,340,20","Another servicable piece of abstract art?,20,120,20","Colton","I enjoy the colors used,24,220,20","Justin","It reminds me of sunsets and dusks.,22,280,20","Christian","colorful water (in front of castle?),17,140,20","0"
"47270","","survey-text","94","788044","0.0-94.0-0.0","AP9WIQ4P78XLH","","","","{""Q0"":""It's a tropical scene on an abandoned island.""}","","","","","","","","","","","","","","","","","","","","","","",""
"2864","","image-slider-response","95","790913","0.0-95.0","AP9WIQ4P78XLH","","","","","9","","","","","","","","","","","","","","","","","","","","","",""
"3669","","image-button-response","96","795917","0.0-96.0","AP9WIQ4P78XLH","img_art/1.jpg","2","","","","","","","","","","","","","","","","","","","","","","","","",""
"655","","image-button-response","97","796576","0.0-97.0","AP9WIQ4P78XLH","img_art/1.jpg","2","","","","","","","","","","","","","","","","","","","","","","","","",""
"1223","","image-button-response","98","797801","0.0-98.0-0.0","AP9WIQ4P78XLH","img_art/1.jpg","3","","","","","","","","","","","","","","","","","","","","","","","","",""
"1276","","image-button-response","99","799081","0.0-99.0-0.0","AP9WIQ4P78XLH","img_art/1.jpg","5","","","","","","","","","","","","","","","","","","","","","","","","",""
"null","","html-keyboard-response","100","800585","0.0-100.0","AP9WIQ4P78XLH","<p style=""font-size: 48px;"">+</p>","","","","","null","allTrialResponses","1500","1","8","img_art/1.jpg","9","It's a tropical scene on an abandoned island.","Colton,Carlos,Justin,Christian,Jared,Jordan","the colors are nice,8,220,20","Colors are pleasant, but feels incredibly generic.,9,80,20","It reminds me of a sunset I once saw.,16,280,20","bamboo boat in sunset,12,140,20","there isnt anything clear to look at,-2,400,20","I like the warmth of the picture,21,160,20","Justin","It reminds me of a sunset I once saw.,16,280,20","Christian","bamboo boat in sunset,12,140,20","Jordan","I like the warmth of the picture,21,160,20","0"
"24554","","survey-text","101","825153","0.0-101.0-0.0","AP9WIQ4P78XLH","","","","{""Q0"":""Hints of pointillism with an orchestra in front.""}","","","","","","","","","","","","","","","","","","","","","","",""
"2845","","image-slider-response","102","828004","0.0-102.0","AP9WIQ4P78XLH","","","","","35","","","","","","","","","","","","","","","","","","","","","",""
"null","","image-button-response","103","833008","0.0-103.0","AP9WIQ4P78XLH","img_art/23.jpg","null","","","","","","","","","","","","","","","","","","","","","","","","",""
"3494","","image-button-response","104","836503","0.0-104.0","AP9WIQ4P78XLH","img_art/23.jpg","0","","","","","","","","","","","","","","","","","","","","","","","","",""
"5227","","image-button-response","105","841732","0.0-105.0-0.0","AP9WIQ4P78XLH","img_art/23.jpg","4","","","","","","","","","","","","","","","","","","","","","","","","",""
"2944","","image-button-response","106","844681","0.0-106.0-0.0","AP9WIQ4P78XLH","img_art/23.jpg","1","","","","","","","","","","","","","","","","","","","","","","","","",""
"null","","html-keyboard-response","107","845185","0.0-107.0","AP9WIQ4P78XLH","<p style=""font-size: 48px;"">+</p>","","","","","null","allTrialResponses","500","1","9","img_art/23.jpg","35","Hints of pointillism with an orchestra in front.","Seth,Kenneth,Justin,Christian,Tyler,Jordan","I thought this art was exciting and it reminded me of dancing people.,12,60,20","Love this. I love the white, really pops with the colors surrounding it.,44,300,20","The white paint through the middle really draws the eye.,30,280,20","love the contrast (was this painted by a left-handed artist?),7,140,20","Looks celebratory and joyful! However, the photograph does not do the original work's colors justice.,27,320,20","I like the contrast,29,160,20","Seth","I thought this art was exciting and it reminded me of dancing people.,12,60,20","Tyler","Looks celebratory and joyful! However, the photograph does not do the original work's colors justice.,27,320,20","Kenneth","Love this. I love the white, really pops with the colors surrounding it.,44,300,20","0"
"31355","","survey-text","108","876553","0.0-108.0-0.0","AP9WIQ4P78XLH","","","","{""Q0"":""An interpretation of the Old West as if done by Dali.""}","","","","","","","","","","","","","","","","","","","","","","",""
"2660","","image-slider-response","109","879219","0.0-109.0","AP9WIQ4P78XLH","","","","","-8","","","","","","","","","","","","","","","","","","","","","",""
"null","","image-button-response","110","884223","0.0-110.0","AP9WIQ4P78XLH","img_art/20.jpg","null","","","","","","","","","","","","","","","","","","","","","","","","",""
"1522","","image-button-response","111","885748","0.0-111.0","AP9WIQ4P78XLH","img_art/20.jpg","3","","","","","","","","","","","","","","","","","","","","","","","","",""
"9921","","image-button-response","112","895673","0.0-112.0-0.0","AP9WIQ4P78XLH","img_art/20.jpg","1","","","","","","","","","","","","","","","","","","","","","","","","",""
"2430","","image-button-response","113","898107","0.0-113.0-0.0","AP9WIQ4P78XLH","img_art/20.jpg","0","","","","","","","","","","","","","","","","","","","","","","","","",""
"null","","html-keyboard-response","114","899611","0.0-114.0","AP9WIQ4P78XLH","<p style=""font-size: 48px;"">+</p>","","","","","null","allTrialResponses","1500","1","10","img_art/20.jpg","-8","An interpretation of the Old West as if done by Dali.","Seth,Kenneth,Mason,Charles,Tyler,Isaiah","I'm not sure why this reminds me of surrealism. It might be the colors used.,16,60,20","I want to like this more, but i wish it was more detailed. It's hard for me to see what it is.,5,300,20","Very cool, and calming (again) Love it.,47,100,20","Something bad has happened TO reality,-23,100,20","This is not abstract art, it is representative.,0,320,20","I feel powerful, like I am looking out a window at this machine, that I am in charge.,17,300,20","Charles","Something bad has happened TO reality,-23,100,20","Kenneth","I want to like this more, but i wish it was more detailed. It's hard for me to see what it is.,5,300,20","Seth","I'm not sure why this reminds me of surrealism. It might be the colors used.,16,60,20","0"
"3875","","survey-text","115","903512","0.0-115.0-0.0","AP9WIQ4P78XLH","","","","{""Q0"":""our""}","","","","","","","","","","","","","","","","","","","","","","",""
"14221","","survey-text","116","917737","0.0-116.0-0.0","AP9WIQ4P78XLH","","","","{""Q0"":""An oyster in the depths of the sea.""}","","","","","","","","","","","","","","","","","","","","","","",""
"2346","","image-slider-response","117","920089","0.0-117.0","AP9WIQ4P78XLH","","","","","5","","","","","","","","","","","","","","","","","","","","","",""
"null","","image-button-response","118","925094","0.0-118.0","AP9WIQ4P78XLH","img_art/9.jpg","null","","","","","","","","","","","","","","","","","","","","","","","","",""
"1289","","image-button-response","119","926385","0.0-119.0","AP9WIQ4P78XLH","img_art/9.jpg","5","","","","","","","","","","","","","","","","","","","","","","","","",""
"2305","","image-button-response","120","928693","0.0-120.0-0.0","AP9WIQ4P78XLH","img_art/9.jpg","2","","","","","","","","","","","","","","","","","","","","","","","","",""
"9213","","image-button-response","121","937912","0.0-121.0-0.0","AP9WIQ4P78XLH","img_art/9.jpg","0","","","","","","","","","","","","","","","","","","","","","","","","",""
"null","","html-keyboard-response","122","938416","0.0-122.0","AP9WIQ4P78XLH","<p style=""font-size: 48px;"">+</p>","","","","","null","allTrialResponses","500","1","11","img_art/9.jpg","5","An oyster in the depths of the sea.","Seth,Kenneth,Antonio,Charles,Blake,Derek","I think it's sleeping beauty but I'm not sure. I didn't care for this piece.,-30,60,20","It looks like a child drew it.,-28,300,20","Stirs up emotions of watching someone sleep which is relaxing,11,220,20","It's too all over the place,-37,100,20","looks like a woman in bed and its ok,8,280,20","It's wild and chaotic but also beautiful and has some kind of calming factor about it,20,360,20","Derek","It's wild and chaotic but also beautiful and has some kind of calming factor about it,20,360,20","Antonio","Stirs up emotions of watching someone sleep which is relaxing,11,220,20","Seth","I think it's sleeping beauty but I'm not sure. I didn't care for this piece.,-30,60,20","0"
"26219","","survey-text","123","964648","0.0-123.0-0.0","AP9WIQ4P78XLH","","","","{""Q0"":""There's a lot going on here, and it makes me think of Inception.""}","","","","","","","","","","","","","","","","","","","","","","",""
"2403","","image-slider-response","124","967057","0.0-124.0","AP9WIQ4P78XLH","","","","","43","","","","","","","","","","","","","","","","","","","","","",""
"null","","image-button-response","125","972060","0.0-125.0","AP9WIQ4P78XLH","img_art/8.jpg","null","","","","","","","","","","","","","","","","","","","","","","","","",""
"689","","image-button-response","126","972752","0.0-126.0","AP9WIQ4P78XLH","img_art/8.jpg","4","","","","","","","","","","","","","","","","","","","","","","","","",""
"1061","","image-button-response","127","973817","0.0-127.0-0.0","AP9WIQ4P78XLH","img_art/8.jpg","5","","","","","","","","","","","","","","","","","","","","","","","","",""
"3891","","image-button-response","128","977713","0.0-128.0-0.0","AP9WIQ4P78XLH","img_art/8.jpg","2","","","","","","","","","","","","","","","","","","","","","","","","",""
"null","","html-keyboard-response","129","978217","0.0-129.0","AP9WIQ4P78XLH","<p style=""font-size: 48px;"">+</p>","","","","","null","allTrialResponses","500","1","12","img_art/8.jpg","43","There's a lot going on here, and it makes me think of Inception.","Seth,Joseph,Antonio,Victor,Steven,Derek","I don't care for the piece, but I appreciate the talent that it took to create it.,22,60,20","The faces are kinda freaky.,-17,220,20","I love the colors in it and also the faces and door ways. Made me feel hopeful,35,220,20","I like the colors,10,340,20","very nice, i love what's going on here,21,160,20","It's simply gorgeous. This artist is very talented,50,360,20","Steven","very nice, i love what's going on here,21,160,20","Derek","It's simply gorgeous. This artist is very talented,50,360,20","Antonio","I love the colors in it and also the faces and door ways. Made me feel hopeful,35,220,20","0"
"163713","","survey-text","130","1141943","0.0-130.0-0.0","AP9WIQ4P78XLH","","","","{""Q0"":""An abandoned mesa on a faraway planet - very solitary feeling.""}","","","","","","","","","","","","","","","","","","","","","","",""
"3102","","image-slider-response","131","1145050","0.0-131.0","AP9WIQ4P78XLH","","","","","30","","","","","","","","","","","","","","","","","","","","","",""
"null","","image-button-response","132","1150055","0.0-132.0","AP9WIQ4P78XLH","img_art/21.jpg","null","","","","","","","","","","","","","","","","","","","","","","","","",""
"5446","","image-button-response","133","1155503","0.0-133.0","AP9WIQ4P78XLH","img_art/21.jpg","0","","","","","","","","","","","","","","","","","","","","","","","","",""
"3007","","image-button-response","134","1158515","0.0-134.0-0.0","AP9WIQ4P78XLH","img_art/21.jpg","3","","","","","","","","","","","","","","","","","","","","","","","","",""
"25209","","image-button-response","135","1183728","0.0-135.0-0.0","AP9WIQ4P78XLH","img_art/21.jpg","1","","","","","","","","","","","","","","","","","","","","","","","","",""
"null","","html-keyboard-response","136","1185232","0.0-136.0","AP9WIQ4P78XLH","<p style=""font-size: 48px;"">+</p>","","","","","null","allTrialResponses","1500","1","13","img_art/21.jpg","30","An abandoned mesa on a faraway planet - very solitary feeling.","Nathaniel,Spencer,Antonio,Tristan,Steven,Derek","Looks like two ships on fire. Cool image.,12,220,20","Love the colors, uplifting and stormy at the same time,32,120,20","the colors are pretty but I did not feel any thing looking at it,33,220,20","A landscape that leaves me inspired and hopeful.,20,300,20","Okay, I love the color schemes, I can't quite figure it out though,14,160,20","I love the colors in this painting,30,360,20","Nathaniel","Looks like two ships on fire. Cool image.,12,220,20","Tristan","A landscape that leaves me inspired and hopeful.,20,300,20","Spencer","Love the colors, uplifting and stormy at the same time,32,120,20","0"
"21657","","survey-text","137","1206903","0.0-137.0-0.0","AP9WIQ4P78XLH","","","","{""Q0"":""It's either a plant or a bird. There's a hope within this work.""}","","","","","","","","","","","","","","","","","","","","","","",""
"3691","","image-slider-response","138","1210599","0.0-138.0","AP9WIQ4P78XLH","","","","","17","","","","","","","","","","","","","","","","","","","","","",""
"null","","image-button-response","139","1215604","0.0-139.0","AP9WIQ4P78XLH","img_art/6.jpg","null","","","","","","","","","","","","","","","","","","","","","","","","",""
"7066","","image-button-response","140","1222672","0.0-140.0","AP9WIQ4P78XLH","img_art/6.jpg","3","","","","","","","","","","","","","","","","","","","","","","","","",""
"1198","","image-button-response","141","1223874","0.0-141.0-0.0","AP9WIQ4P78XLH","img_art/6.jpg","5","","","","","","","","","","","","","","","","","","","","","","","","",""
"4353","","image-button-response","142","1228231","0.0-142.0-0.0","AP9WIQ4P78XLH","img_art/6.jpg","0","","","","","","","","","","","","","","","","","","","","","","","","",""
"null","","html-keyboard-response","143","1228734","0.0-143.0","AP9WIQ4P78XLH","<p style=""font-size: 48px;"">+</p>","","","","","null","allTrialResponses","500","1","14","img_art/6.jpg","17","It's either a plant or a bird. There's a hope within this work.","Nathaniel,Spencer,Jesse,Tristan,Caleb,Tanner","Not my favorite, but I like the empty vibe and the imagination it invokes. A skinny girl with long legs, perhaps, looking over a cliff,9,220,20","Boring, looks like a sad tree in wind,-37,120,20","Nothing grabs at me here,-11,80,20","Lack of context makes this painting 1-d for me. The headless bird is mysterious and indecipherable.,-10,300,20","Despite how simple it is, this piece has clear meaning.,34,40,20","loneliness, fragile, forever alone, a girl who's been there for eternity, only think tracking time is the length of her hair,9,180,20","Tristan","Lack of context makes this painting 1-d for me. The headless bird is mysterious and indecipherable.,-10,300,20","Tanner","loneliness, fragile, forever alone, a girl who's been there for eternity, only think tracking time is the length of her hair,9,180,20","Nathaniel","Not my favorite, but I like the empty vibe and the imagination it invokes. A skinny girl with long legs, perhaps, looking over a cliff,9,220,20","0"
"60594","","survey-text","144","1289342","0.0-144.0-0.0","AP9WIQ4P78XLH","","","","{""Q0"":""Cartoonish, almost garish. Hard to salvage any emotion due to the muddied use of color.""}","","","","","","","","","","","","","","","","","","","","","","",""
"2662","","image-slider-response","145","1292009","0.0-145.0","AP9WIQ4P78XLH","","","","","-19","","","","","","","","","","","","","","","","","","","","","",""
"null","","image-button-response","146","1297015","0.0-146.0","AP9WIQ4P78XLH","img_art/2.jpg","null","","","","","","","","","","","","","","","","","","","","","","","","",""
"3533","","image-button-response","147","1300550","0.0-147.0","AP9WIQ4P78XLH","img_art/2.jpg","0","","","","","","","","","","","","","","","","","","","","","","","","",""
"1229","","image-button-response","148","1301783","0.0-148.0-0.0","AP9WIQ4P78XLH","img_art/2.jpg","3","","","","","","","","","","","","","","","","","","","","","","","","",""
"4084","","image-button-response","149","1305871","0.0-149.0-0.0","AP9WIQ4P78XLH","img_art/2.jpg","4","","","","","","","","","","","","","","","","","","","","","","","","",""
"null","","html-keyboard-response","150","1307374","0.0-150.0","AP9WIQ4P78XLH","<p style=""font-size: 48px;"">+</p>","","","","","null","allTrialResponses","1500","1","15","img_art/2.jpg","-19","Cartoonish, almost garish. Hard to salvage any emotion due to the muddied use of color.","Nathaniel,Shane,Eric,Tristan,Jake,Tanner","Too gloopy and unfocused,-38,220,20","Feels like a playground or park vibe,27,80,20","I like the color, but I feel like I see a creepy face which I dislike.,-5,100,20","The color palette of this painting is for me displeasing and immature.,-30,300,20","These colors are ugly.,-40,360,20","smilely face, soulful,11,180,20","Nathaniel","Too gloopy and unfocused,-38,220,20","Tristan","The color palette of this painting is for me displeasing and immature.,-30,300,20","Jake","These colors are ugly.,-40,360,20","0"
"5135","","survey-text","151","1312534","0.0-151.0-0.0","AP9WIQ4P78XLH","","","","{""Q0"":""course""}","","","","","","","","","","","","","","","","","","","","","","",""
"85982","","survey-text","152","1398520","0.0-152.0-0.0","AP9WIQ4P78XLH","","","","{""Q0"":""It would be imposing if not for the whimsical red streamers in the foreground.""}","","","","","","","","","","","","","","","","","","","","","","",""
"3936","","image-slider-response","153","1402462","0.0-153.0","AP9WIQ4P78XLH","","","","","19","","","","","","","","","","","","","","","","","","","","","",""
"null","","image-button-response","154","1407467","0.0-154.0","AP9WIQ4P78XLH","img_art/30.jpg","null","","","","","","","","","","","","","","","","","","","","","","","","",""
"1937","","image-button-response","155","1409408","0.0-155.0","AP9WIQ4P78XLH","img_art/30.jpg","5","","","","","","","","","","","","","","","","","","","","","","","","",""
"1283","","image-button-response","156","1410696","0.0-156.0-0.0","AP9WIQ4P78XLH","img_art/30.jpg","2","","","","","","","","","","","","","","","","","","","","","","","","",""
"7513","","image-button-response","157","1418214","0.0-157.0-0.0","AP9WIQ4P78XLH","img_art/30.jpg","0","","","","","","","","","","","","","","","","","","","","","","","","",""
"null","","html-keyboard-response","158","1419218","0.0-158.0","AP9WIQ4P78XLH","<p style=""font-size: 48px;"">+</p>","","","","","null","allTrialResponses","1000","1","16","img_art/30.jpg","19","It would be imposing if not for the whimsical red streamers in the foreground.","Nathaniel,Kyle,Devon,Tristan,Jake,Dylan","No my favorite, but I do like the long strokes of color,11,220,20","Pretty neutral about this one,0,340,20","the different roads to take in life,10,400,20","Too much abstraction for me, leaving my focus mainly on color. I like the texture.,-20,300,20","This is just simple and ugly.,-2,360,20","I really love the pastel colors and the 3D design in this,43,40,20","Dylan","I really love the pastel colors and the 3D design in this,43,40,20","Devon","the different roads to take in life,10,400,20","Nathaniel","No my favorite, but I do like the long strokes of color,11,220,20","0"
"53332","","survey-text","159","1472566","0.0-159.0-0.0","AP9WIQ4P78XLH","","","","{""Q0"":""A city in a rainstorm, washing away the grime.""}","","","","","","","","","","","","","","","","","","","","","","",""
"2188","","image-slider-response","160","1474760","0.0-160.0","AP9WIQ4P78XLH","","","","","23","","","","","","","","","","","","","","","","","","","","","",""
"null","","image-button-response","161","1479766","0.0-161.0","AP9WIQ4P78XLH","img_art/11.jpg","null","","","","","","","","","","","","","","","","","","","","","","","","",""
"1455","","image-button-response","162","1481223","0.0-162.0","AP9WIQ4P78XLH","img_art/11.jpg","1","","","","","","","","","","","","","","","","","","","","","","","","",""
"3836","","image-button-response","163","1485062","0.0-163.0-0.0","AP9WIQ4P78XLH","img_art/11.jpg","0","","","","","","","","","","","","","","","","","","","","","","","","",""
"1659","","image-button-response","164","1486725","0.0-164.0-0.0","AP9WIQ4P78XLH","img_art/11.jpg","3","","","","","","","","","","","","","","","","","","","","","","","","",""
"null","","html-keyboard-response","165","1487729","0.0-165.0","AP9WIQ4P78XLH","<p style=""font-size: 48px;"">+</p>","","","","","null","allTrialResponses","1000","1","17","img_art/11.jpg","23","A city in a rainstorm, washing away the grime.","Nathaniel,Brandon,Devon,Bryan,Jesus,Dylan","Kind of bizzare in that I can imagine ships or something from it.,11,220,20","Don't like cityscapes, which this picture reminds me of,-29,320,20","a beautiful piece of art,33,400,20","Rainy asian city scape.,31,400,20","The different textures and colors make this pleasing to look at.,30,100,20","I normally would not like this photo, but the design is nice.,21,40,20","Brandon","Don't like cityscapes, which this picture reminds me of,-29,320,20","Nathaniel","Kind of bizzare in that I can imagine ships or something from it.,11,220,20","Bryan","Rainy asian city scape.,31,400,20","0"
"33651","","survey-text","166","1521397","0.0-166.0-0.0","AP9WIQ4P78XLH","","","","{""Q0"":""Water bursting forth from a wooded hillside. Hope springs eternal.""}","","","","","","","","","","","","","","","","","","","","","","",""
"2805","","image-slider-response","167","1524209","0.0-167.0","AP9WIQ4P78XLH","","","","","35","","","","","","","","","","","","","","","","","","","","","",""
"null","","image-button-response","168","1529215","0.0-168.0","AP9WIQ4P78XLH","img_art/24.jpg","null","","","","","","","","","","","","","","","","","","","","","","","","",""
"1162","","image-button-response","169","1530382","0.0-169.0","AP9WIQ4P78XLH","img_art/24.jpg","3","","","","","","","","","","","","","","","","","","","","","","","","",""
"1835","","image-button-response","170","1532221","0.0-170.0-0.0","AP9WIQ4P78XLH","img_art/24.jpg","5","","","","","","","","","","","","","","","","","","","","","","","","",""
"428","","image-button-response","171","1532654","0.0-171.0-0.0","AP9WIQ4P78XLH","img_art/24.jpg","4","","","","","","","","","","","","","","","","","","","","","","","","",""
"null","","html-keyboard-response","172","1533158","0.0-172.0","AP9WIQ4P78XLH","<p style=""font-size: 48px;"">+</p>","","","","","null","allTrialResponses","500","1","18","img_art/24.jpg","35","Water bursting forth from a wooded hillside. Hope springs eternal.","Nathaniel,Brandon,Austin,Bryan,Vincent,Nathan","Feels surreal, in a way, and vibrant,37,220,20","Simple. Not too abstract. Love the different flower colors.,20,320,20","Evokes pleasant feelings,50,240,20","Abstract falls & nature.,41,400,20","Spending a day in nature,21,360,20","Looks like a mystical type of forest/waterfall. Love it,40,200,20","Bryan","Abstract falls & nature.,41,400,20","Nathan","Looks like a mystical type of forest/waterfall. Love it,40,200,20","Vincent","Spending a day in nature,21,360,20","0"
"31432","","survey-text","173","1564606","0.0-173.0-0.0","AP9WIQ4P78XLH","","","","{""Q0"":""Evokes a sense of danger. Warfare, bloodshed, conflict, strife.""}","","","","","","","","","","","","","","","","","","","","","","",""
"2971","","image-slider-response","174","1567581","0.0-174.0","AP9WIQ4P78XLH","","","","","-25","","","","","","","","","","","","","","","","","","","","","",""
"null","","image-button-response","175","1572585","0.0-175.0","AP9WIQ4P78XLH","img_art/3.jpg","null","","","","","","","","","","","","","","","","","","","","","","","","",""
"1839","","image-button-response","176","1574430","0.0-176.0","AP9WIQ4P78XLH","img_art/3.jpg","2","","","","","","","","","","","","","","","","","","","","","","","","",""
"2107","","image-button-response","177","1576542","0.0-177.0-0.0","AP9WIQ4P78XLH","img_art/3.jpg","4","","","","","","","","","","","","","","","","","","","","","","","","",""
"1738","","image-button-response","178","1578285","0.0-178.0-0.0","AP9WIQ4P78XLH","img_art/3.jpg","5","","","","","","","","","","","","","","","","","","","","","","","","",""
"null","","html-keyboard-response","179","1579289","0.0-179.0","AP9WIQ4P78XLH","<p style=""font-size: 48px;"">+</p>","","","","","null","allTrialResponses","1000","1","19","img_art/3.jpg","-25","Evokes a sense of danger. Warfare, bloodshed, conflict, strife.","John,Luis,Brett,Bryan,Vincent,Nathan","Looks like someone spilled ketchup and forgot to clean it up,-30,120,20","I dont really feel anything from this, i cant see or understand any of it,-20,400,20","Confusion and mayhem,-10,360,20","Just no. I love red but this looks like blood splatter on a wall from a horrific killing.,-45,400,20","Iike this one it's a piece that I need to spend more time with to understand how i feel about it,20,360,20","Looks like it was painted with blood, which I'm aware is an art style, but it just looks messy.,-20,200,20","Brett","Confusion and mayhem,-10,360,20","Vincent","Iike this one it's a piece that I need to spend more time with to understand how i feel about it,20,360,20","Nathan","Looks like it was painted with blood, which I'm aware is an art style, but it just looks messy.,-20,200,20","0"
"33187","","survey-text","180","1612493","0.0-180.0-0.0","AP9WIQ4P78XLH","","","","{""Q0"":""You are forbidden to access this place. It is no longer for you.""}","","","","","","","","","","","","","","","","","","","","","","",""
"2347","","image-slider-response","181","1614844","0.0-181.0","AP9WIQ4P78XLH","","","","","39","","","","","","","","","","","","","","","","","","","","","",""
"null","","image-button-response","182","1619849","0.0-182.0","AP9WIQ4P78XLH","img_art/29.jpg","null","","","","","","","","","","","","","","","","","","","","","","","","",""
"1160","","image-button-response","183","1621010","0.0-183.0","AP9WIQ4P78XLH","img_art/29.jpg","3","","","","","","","","","","","","","","","","","","","","","","","","",""
"1624","","image-button-response","184","1622638","0.0-184.0-0.0","AP9WIQ4P78XLH","img_art/29.jpg","2","","","","","","","","","","","","","","","","","","","","","","","","",""
"14338","","image-button-response","185","1636979","0.0-185.0-0.0","AP9WIQ4P78XLH","img_art/29.jpg","1","","","","","","","","","","","","","","","","","","","","","","","","",""
"null","","html-keyboard-response","186","1637981","0.0-186.0","AP9WIQ4P78XLH","<p style=""font-size: 48px;"">+</p>","","","","","null","allTrialResponses","1000","1","20","img_art/29.jpg","39","You are forbidden to access this place. It is no longer for you.","Paul,Alex,Brett,Connor,Vincent,Nathan","There's too much black and it looks sloppy,-35,300,20","The texture really stands out, this is an interesting composition,6,100,20","Reminds me of graffitti gone wrong,15,360,20","Red X is scary, like the bricks,7,240,20","Another great work of art and very conversational piece,33,360,20","Quite ugly in my opinion,-30,200,20","Connor","Red X is scary, like the bricks,7,240,20","Brett","Reminds me of graffitti gone wrong,15,360,20","Alex","The texture really stands out, this is an interesting composition,6,100,20","0"
"2804","","survey-text","187","1640813","0.0-187.0-0.0","AP9WIQ4P78XLH","","","","{""Q0"":""we""}","","","","","","","","","","","","","","","","","","","","","","",""
"26812","","survey-text","188","1667629","0.0-188.0-0.0","AP9WIQ4P78XLH","","","","{""Q0"":""Intricate levels of detail. Is this a monster at sea?""}","","","","","","","","","","","","","","","","","","","","","","",""
"2650","","image-slider-response","189","1670284","0.0-189.0","AP9WIQ4P78XLH","","","","","30","","","","","","","","","","","","","","","","","","","","","",""
"null","","image-button-response","190","1675289","0.0-190.0","AP9WIQ4P78XLH","img_art/10.jpg","null","","","","","","","","","","","","","","","","","","","","","","","","",""
"1869","","image-button-response","191","1677160","0.0-191.0","AP9WIQ4P78XLH","img_art/10.jpg","3","","","","","","","","","","","","","","","","","","","","","","","","",""
"2680","","image-button-response","192","1679844","0.0-192.0-0.0","AP9WIQ4P78XLH","img_art/10.jpg","1","","","","","","","","","","","","","","","","","","","","","","","","",""
"1125","","image-button-response","193","1680973","0.0-193.0-0.0","AP9WIQ4P78XLH","img_art/10.jpg","2","","","","","","","","","","","","","","","","","","","","","","","","",""
"null","","html-keyboard-response","194","1682476","0.0-194.0","AP9WIQ4P78XLH","<p style=""font-size: 48px;"">+</p>","","","","","null","allTrialResponses","1500","1","21","img_art/10.jpg","30","Intricate levels of detail. Is this a monster at sea?","Dalton,Alex,Brett,Connor,Nicholas,Adam","for some reason reminds me of music,2,300,20","This could be a guitar, or it could be a completely random shape.,-3,100,20","Musical guitar whimsy,45,360,20","Cello music instrument,11,240,20","I like it but do not love it. It is sort of depressing,13,240,20","I like the contrast,10,40,20","Connor","Cello music instrument,11,240,20","Alex","This could be a guitar, or it could be a completely random shape.,-3,100,20","Brett","Musical guitar whimsy,45,360,20","0"
"22934","","survey-text","195","1705428","0.0-195.0-0.0","AP9WIQ4P78XLH","","","","{""Q0"":""A couple of people meeting up for an illicit transaction.""}","","","","","","","","","","","","","","","","","","","","","","",""
"2676","","image-slider-response","196","1708109","0.0-196.0","AP9WIQ4P78XLH","","","","","6","","","","","","","","","","","","","","","","","","","","","",""
"null","","image-button-response","197","1713114","0.0-197.0","AP9WIQ4P78XLH","img_art/28.jpg","null","","","","","","","","","","","","","","","","","","","","","","","","",""
"3083","","image-button-response","198","1716199","0.0-198.0","AP9WIQ4P78XLH","img_art/28.jpg","1","","","","","","","","","","","","","","","","","","","","","","","","",""
"1105","","image-button-response","199","1717308","0.0-199.0-0.0","AP9WIQ4P78XLH","img_art/28.jpg","2","","","","","","","","","","","","","","","","","","","","","","","","",""
"2310","","image-button-response","200","1719623","0.0-200.0-0.0","AP9WIQ4P78XLH","img_art/28.jpg","3","","","","","","","","","","","","","","","","","","","","","","","","",""
"null","","html-keyboard-response","201","1720126","0.0-201.0","AP9WIQ4P78XLH","<p style=""font-size: 48px;"">+</p>","","","","","null","allTrialResponses","500","1","22","img_art/28.jpg","6","A couple of people meeting up for an illicit transaction.","Gabriel,Alex,Brett,Connor,Evan,Bradley","this one is rather disturbing,-22,160,20","This piece is depressing to me, reminds me of German paintings,-6,100,20","Overpopulated city,35,360,20","Dislike color palette and amoeba,-9,240,20","It feels very blah,-10,140,20","I think this may have to do with humpty dumpty?,-7,300,20","Alex","This piece is depressing to me, reminds me of German paintings,-6,100,20","Brett","Overpopulated city,35,360,20","Connor","Dislike color palette and amoeba,-9,240,20","0"
"28633","","survey-text","202","1748778","0.0-202.0-0.0","AP9WIQ4P78XLH","","","","{""Q0"":""A time traveller has escaped his lab, and his reality. Fantastic bright coloration.""}","","","","","","","","","","","","","","","","","","","","","","",""
"3528","","image-slider-response","203","1752307","0.0-203.0","AP9WIQ4P78XLH","","","","","45","","","","","","","","","","","","","","","","","","","","","",""
"null","","image-button-response","204","1757313","0.0-204.0","AP9WIQ4P78XLH","img_art/17.jpg","null","","","","","","","","","","","","","","","","","","","","","","","","",""
"304","","image-button-response","205","1757620","0.0-205.0","AP9WIQ4P78XLH","img_art/17.jpg","2","","","","","","","","","","","","","","","","","","","","","","","","",""
"1767","","image-button-response","206","1759391","0.0-206.0-0.0","AP9WIQ4P78XLH","img_art/17.jpg","0","","","","","","","","","","","","","","","","","","","","","","","","",""
"4327","","image-button-response","207","1763721","0.0-207.0-0.0","AP9WIQ4P78XLH","img_art/17.jpg","5","","","","","","","","","","","","","","","","","","","","","","","","",""
"null","","html-keyboard-response","208","1764723","0.0-208.0","AP9WIQ4P78XLH","<p style=""font-size: 48px;"">+</p>","","","","","null","allTrialResponses","1000","1","23","img_art/17.jpg","45","A time traveller has escaped his lab, and his reality. Fantastic bright coloration.","Jonathan,Alex,Brett,Connor,Peter,Sean","Feels nostalgic somehow,31,140,20","I can tell there are tress and maybe some doors but I'm not a fan of the style,-2,100,20","Looks like an explosion of pretty artwork,45,360,20","Windows indoor tree, weird palette,-11,240,20","I feel okay , it's like a tree,28,320,20","my response to the picture is that it looks beautiful,27,40,20","Brett","Looks like an explosion of pretty artwork,45,360,20","Jonathan","Feels nostalgic somehow,31,140,20","Sean","my response to the picture is that it looks beautiful,27,40,20","0"
"29360","","survey-text","209","1794102","0.0-209.0-0.0","AP9WIQ4P78XLH","","","","{""Q0"":""Andy Warhol comes to mind here, but at a more complex level of capitalism.""}","","","","","","","","","","","","","","","","","","","","","","",""
"2650","","image-slider-response","210","1796757","0.0-210.0","AP9WIQ4P78XLH","","","","","-24","","","","","","","","","","","","","","","","","","","","","",""
"null","","image-button-response","211","1801764","0.0-211.0","AP9WIQ4P78XLH","img_art/12.jpg","null","","","","","","","","","","","","","","","","","","","","","","","","",""
"4412","","image-button-response","212","1806178","0.0-212.0","AP9WIQ4P78XLH","img_art/12.jpg","4","","","","","","","","","","","","","","","","","","","","","","","","",""
"4544","","image-button-response","213","1810723","0.0-213.0-0.0","AP9WIQ4P78XLH","img_art/12.jpg","1","","","","","","","","","","","","","","","","","","","","","","","","",""
"1872","","image-button-response","214","1812599","0.0-214.0-0.0","AP9WIQ4P78XLH","img_art/12.jpg","0","","","","","","","","","","","","","","","","","","","","","","","","",""
"null","","html-keyboard-response","215","1814103","0.0-215.0","AP9WIQ4P78XLH","<p style=""font-size: 48px;"">+</p>","","","","","null","allTrialResponses","1500","1","24","img_art/12.jpg","-24","Andy Warhol comes to mind here, but at a more complex level of capitalism.","Jonathan,Jason,Brett,Dustin,Ethan,Sean","I like all the squares and the colors but it feels too cluttered to me,20,140,20","The shapes present in the picture make it very interesting,17,20,20","Night and day, light and dark,35,360,20","Squares are rigid. I'm ambivalent.,1,20,20","The colors are ok. The piece reminds me of the 90s era, so I kinda like it!,-4,120,20","my reaction is that the picture is wierd,-11,40,20","Ethan","The colors are ok. The piece reminds me of the 90s era, so I kinda like it!,-4,120,20","Jason","The shapes present in the picture make it very interesting,17,20,20","Jonathan","I like all the squares and the colors but it feels too cluttered to me,20,140,20","0"
"24897","","survey-text","216","1839019","0.0-216.0-0.0","AP9WIQ4P78XLH","","","","{""Q0"":""It reminds me of the wacky inflatabale arms guy. Wonder what he's selling here?""}","","","","","","","","","","","","","","","","","","","","","","",""
"2902","","image-slider-response","217","1841926","0.0-217.0","AP9WIQ4P78XLH","","","","","11","","","","","","","","","","","","","","","","","","","","","",""
"null","","image-button-response","218","1846931","0.0-218.0","AP9WIQ4P78XLH","img_art/4.jpg","null","","","","","","","","","","","","","","","","","","","","","","","","",""
"3134","","image-button-response","219","1850068","0.0-219.0","AP9WIQ4P78XLH","img_art/4.jpg","0","","","","","","","","","","","","","","","","","","","","","","","","",""
"2147","","image-button-response","220","1852217","0.0-220.0-0.0","AP9WIQ4P78XLH","img_art/4.jpg","5","","","","","","","","","","","","","","","","","","","","","","","","",""
"3840","","image-button-response","221","1856060","0.0-221.0-0.0","AP9WIQ4P78XLH","img_art/4.jpg","2","","","","","","","","","","","","","","","","","","","","","","","","",""
"null","","html-keyboard-response","222","1857063","0.0-222.0","AP9WIQ4P78XLH","<p style=""font-size: 48px;"">+</p>","","","","","null","allTrialResponses","1000","1","25","img_art/4.jpg","11","It reminds me of the wacky inflatabale arms guy. Wonder what he's selling here?","Jonathan,Jason,Mark,Joshua,Ethan,Malik","Mcdonald's french fries :(,-40,140,20","I don't understand this at all,3,20,20","I think it speaks to familial closeness but the tonality is offputting to me.,-10,80,20","looks very rudimentary and too simple.,-14,240,20","This looks like a child got into his diaper.,-46,120,20","Reminds me of late night frustrated paintings of my own made of coffee,12,40,20","Jonathan","Mcdonald's french fries :(,-40,140,20","Malik","Reminds me of late night frustrated paintings of my own made of coffee,12,40,20","Mark","I think it speaks to familial closeness but the tonality is offputting to me.,-10,80,20","0"
"4281","","survey-text","223","1861380","0.0-223.0-0.0","AP9WIQ4P78XLH","","","","{""Q0"":""table""}","","","","","","","","","","","","","","","","","","","","","","",""
"16237","","survey-text","224","1877619","0.0-224.0-0.0","AP9WIQ4P78XLH","","","","{""Q0"":""New York on a bright sunny day.""}","","","","","","","","","","","","","","","","","","","","","","",""
"2195","","image-slider-response","225","1879819","0.0-225.0","AP9WIQ4P78XLH","","","","","18","","","","","","","","","","","","","","","","","","","","","",""
"null","","image-button-response","226","1884823","0.0-226.0","AP9WIQ4P78XLH","img_art/26.jpg","null","","","","","","","","","","","","","","","","","","","","","","","","",""
"1322","","image-button-response","227","1886147","0.0-227.0","AP9WIQ4P78XLH","img_art/26.jpg","2","","","","","","","","","","","","","","","","","","","","","","","","",""
"20357","","image-button-response","228","1906508","0.0-228.0-0.0","AP9WIQ4P78XLH","img_art/26.jpg","3","","","","","","","","","","","","","","","","","","","","","","","","",""
"4589","","image-button-response","229","1911099","0.0-229.0-0.0","AP9WIQ4P78XLH","img_art/26.jpg","0","","","","","","","","","","","","","","","","","","","","","","","","",""
"null","","html-keyboard-response","230","1912102","0.0-230.0","AP9WIQ4P78XLH","<p style=""font-size: 48px;"">+</p>","","","","","null","allTrialResponses","1000","1","26","img_art/26.jpg","18","New York on a bright sunny day.","Jonathan,Brian,Mark,Marcus,Bryce,Malik","It's relaxing to look at but I wish it was just a little more defined,20,140,20","I'm not really into landscapes unless I have a personal connection to them,-21,380,20","I get the feeling of a small old world street.,24,80,20","Nice, but not very interesting. I do like the blue tree though.,6,60,20","Love the colors in this one.,22,20,20","Feels like still life,-13,40,20","Mark","I get the feeling of a small old world street.,24,80,20","Marcus","Nice, but not very interesting. I do like the blue tree though.,6,60,20","Jonathan","It's relaxing to look at but I wish it was just a little more defined,20,140,20","0"
"21500","","survey-text","231","1933621","0.0-231.0-0.0","AP9WIQ4P78XLH","","","","{""Q0"":""Cliffs overlooking the sea, or perhaps a dam and lake.""}","","","","","","","","","","","","","","","","","","","","","","",""
"1856","","image-slider-response","232","1935483","0.0-232.0","AP9WIQ4P78XLH","","","","","6","","","","","","","","","","","","","","","","","","","","","",""
"null","","image-button-response","233","1940487","0.0-233.0","AP9WIQ4P78XLH","img_art/19.jpg","null","","","","","","","","","","","","","","","","","","","","","","","","",""
"7401","","image-button-response","234","1947891","0.0-234.0","AP9WIQ4P78XLH","img_art/19.jpg","1","","","","","","","","","","","","","","","","","","","","","","","","",""
"5173","","image-button-response","235","1953067","0.0-235.0-0.0","AP9WIQ4P78XLH","img_art/19.jpg","2","","","","","","","","","","","","","","","","","","","","","","","","",""
"923","","image-button-response","236","1953995","0.0-236.0-0.0","AP9WIQ4P78XLH","img_art/19.jpg","3","","","","","","","","","","","","","","","","","","","","","","","","",""
"null","","html-keyboard-response","237","1955499","0.0-237.0","AP9WIQ4P78XLH","<p style=""font-size: 48px;"">+</p>","","","","","null","allTrialResponses","1500","1","27","img_art/19.jpg","6","Cliffs overlooking the sea, or perhaps a dam and lake.","Jonathan,Timothy,Mark,Marcus,Alexander,Jose","Feels like something I would hang in my dining room,42,140,20","Something weird is going on in this painting,-20,240,20","Feels like a cafe in Paris.,35,80,20","I like the colors but the scene itself feels too jumbled and cluttered,9,60,20","Messy pantry full of food.,5,120,20","I dig the not being able to tell what anything is but knowing everything is supposed to be something,46,200,20","Timothy","Something weird is going on in this painting,-20,240,20","Mark","Feels like a cafe in Paris.,35,80,20","Marcus","I like the colors but the scene itself feels too jumbled and cluttered,9,60,20","0"
"15787","","survey-text","238","1971306","0.0-238.0-0.0","AP9WIQ4P78XLH","","","","{""Q0"":""Very primitive work, hard to redeem.""}","","","","","","","","","","","","","","","","","","","","","","",""
"1832","","image-slider-response","239","1973143","0.0-239.0","AP9WIQ4P78XLH","","","","","-35","","","","","","","","","","","","","","","","","","","","","",""
"null","","image-button-response","240","1978148","0.0-240.0","AP9WIQ4P78XLH","img_art/27.jpg","null","","","","","","","","","","","","","","","","","","","","","","","","",""
"1043","","image-button-response","241","1979195","0.0-241.0","AP9WIQ4P78XLH","img_art/27.jpg","3","","","","","","","","","","","","","","","","","","","","","","","","",""
"842","","image-button-response","242","1980040","0.0-242.0-0.0","AP9WIQ4P78XLH","img_art/27.jpg","5","","","","","","","","","","","","","","","","","","","","","","","","",""
"521","","image-button-response","243","1980563","0.0-243.0-0.0","AP9WIQ4P78XLH","img_art/27.jpg","4","","","","","","","","","","","","","","","","","","","","","","","","",""
"null","","html-keyboard-response","244","1982067","0.0-244.0","AP9WIQ4P78XLH","<p style=""font-size: 48px;"">+</p>","","","","","null","allTrialResponses","1500","1","28","img_art/27.jpg","-35","Very primitive work, hard to redeem.","Shawn,Timothy,Mark,Marcus,Mitchell,Michael","Like the movement of the lines and dripping paint.,30,100,20","The colors in this one are wonderful,20,240,20","I see a cathedral through the woods.,12,80,20","It's okay. Not really interesting to me.,-10,60,20","Angelic, childlike. happiness but also with sadness.,40,180,20","Anyone could do that.,-31,140,20","Marcus","It's okay. Not really interesting to me.,-10,60,20","Michael","Anyone could do that.,-31,140,20","Mitchell","Angelic, childlike. happiness but also with sadness.,40,180,20","0"
"36126","","survey-text","245","2018211","0.0-245.0-0.0","AP9WIQ4P78XLH","","","","{""Q0"":""Childhood memories of trauma.""}","","","","","","","","","","","","","","","","","","","","","","",""
"2376","","image-slider-response","246","2020591","0.0-246.0","AP9WIQ4P78XLH","","","","","-33","","","","","","","","","","","","","","","","","","","","","",""
"null","","image-button-response","247","2025595","0.0-247.0","AP9WIQ4P78XLH","img_art/16.jpg","null","","","","","","","","","","","","","","","","","","","","","","","","",""
"637","","image-button-response","248","2026234","0.0-248.0","AP9WIQ4P78XLH","img_art/16.jpg","3","","","","","","","","","","","","","","","","","","","","","","","","",""
"1992","","image-button-response","249","2028226","0.0-249.0-0.0","AP9WIQ4P78XLH","img_art/16.jpg","4","","","","","","","","","","","","","","","","","","","","","","","","",""
"2578","","image-button-response","250","2030810","0.0-250.0-0.0","AP9WIQ4P78XLH","img_art/16.jpg","5","","","","","","","","","","","","","","","","","","","","","","","","",""
"null","","html-keyboard-response","251","2031314","0.0-251.0","AP9WIQ4P78XLH","<p style=""font-size: 48px;"">+</p>","","","","","null","allTrialResponses","500","1","29","img_art/16.jpg","-33","Childhood memories of trauma.","Juan,Alexis,Hunter,Marcus,Mitchell,Michael","This is too bizarre.,-39,260,20","It looks very generic, like items were pasted onto the background,-38,140,20","so close to feeling intentional,-4,240,20","Hate this, especially the jarring contrast of the super realistic teddybear face.,-50,60,20","A teddybear, gun, crying person does not give a happy reaction. Death, still, no life.,-50,180,20","Looks like a kid did itt and ti looks disturbing.,-45,140,20","Marcus","Hate this, especially the jarring contrast of the super realistic teddybear face.,-50,60,20","Mitchell","A teddybear, gun, crying person does not give a happy reaction. Death, still, no life.,-50,180,20","Michael","Looks like a kid did itt and ti looks disturbing.,-45,140,20","0"
"59299","","survey-text","252","2090634","0.0-252.0-0.0","AP9WIQ4P78XLH","","","","{""Q0"":""Jarring color springs forth. This has a lot of potential.""}","","","","","","","","","","","","","","","","","","","","","","",""
"2068","","image-slider-response","253","2092706","0.0-253.0","AP9WIQ4P78XLH","","","","","40","","","","","","","","","","","","","","","","","","","","","",""
"null","","image-button-response","254","2097711","0.0-254.0","AP9WIQ4P78XLH","img_art/14.jpg","null","","","","","","","","","","","","","","","","","","","","","","","","",""
"649","","image-button-response","255","2098362","0.0-255.0","AP9WIQ4P78XLH","img_art/14.jpg","2","","","","","","","","","","","","","","","","","","","","","","","","",""
"3324","","image-button-response","256","2101690","0.0-256.0-0.0","AP9WIQ4P78XLH","img_art/14.jpg","3","","","","","","","","","","","","","","","","","","","","","","","","",""
"2693","","image-button-response","257","2104389","0.0-257.0-0.0","AP9WIQ4P78XLH","img_art/14.jpg","4","","","","","","","","","","","","","","","","","","","","","","","","",""
"null","","html-keyboard-response","258","2105892","0.0-258.0","AP9WIQ4P78XLH","<p style=""font-size: 48px;"">+</p>","","","","","null","allTrialResponses","1500","1","30","img_art/14.jpg","40","Jarring color springs forth. This has a lot of potential.","Daniel,Zachary,Aaron,Marcus,Mitchell,Michael","Baby's room palette with tree confusion in a more confused substrate.,-15,320,20","Did not evoke much feeling except confusion. I am not sure what to make of this one.,-20,400,20","It reminds me of a tree in the desert.,15,20,20","I like the colors and the shapes are interesting,11,60,20","Tornado, nature. trees falling and displaced creatures. Love the colors though.,1,180,20","Looks like there is some skill but also at the same time parts look unskilled.,-16,140,20","Aaron","It reminds me of a tree in the desert.,15,20,20","Marcus","I like the colors and the shapes are interesting,11,60,20","Mitchell","Tornado, nature. trees falling and displaced creatures. Love the colors though.,1,180,20","0"
"3272","","image-button-response_instructions","259","2109185","0.0-259.0","AP9WIQ4P78XLH","","0","instructions","","","","","","","","","","","","","","","","","","","","","","","",""
