"rt","url","trial_type","trial_index","time_elapsed","internal_node_id","participant_id","stimulus","button_pressed","Name","responses","response","key_press","variableName","fixationTime","condition","trial","photo","subjectRating","subjectResponse","agentsNames","agent_1_Response","agent_2_Response","agent_3_Response","agent_4_Response","agent_5_Response","agent_6_Response","kept_1_name","kept_1_response","kept_2_name","kept_2_response","kept_3_name","kept_3_response","errorCounter"
"47849","external_page_harvard.html","external-html","0","47962","0.0-0.0","API7K4R8MF7VD","","","","","","","","","","","","","","","","","","","","","","","","","","",""
"3817","","image-button-response","1","51782","0.0-1.0","API7K4R8MF7VD","","1","","","","","","","","","","","","","","","","","","","","","","","","",""
"1358","","image-button-response","2","53146","0.0-2.0-0.0","API7K4R8MF7VD","","1","phone","","","","","","","","","","","","","","","","","","","","","","","",""
"9177","","survey-text","3","62324","0.0-3.0-0.0","API7K4R8MF7VD","","","","{""Q0"":""API7K4R8MF7VD""}","","","","","","","","","","","","","","","","","","","","","","",""
"7864","","image-button-response_instructions","4","70190","0.0-4.0","API7K4R8MF7VD","","0","instructions","","","","","","","","","","","","","","","","","","","","","","","",""
"27582","","image-button-response_instructions","5","97773","0.0-5.0","API7K4R8MF7VD","img_art/ins/popularity/ins1.png","0","instructions","","","","","","","","","","","","","","","","","","","","","","","",""
"4546","","image-button-response_instructions","6","102321","0.0-6.0","API7K4R8MF7VD","img_art/ins/popularity/ins2.png","0","instructions","","","","","","","","","","","","","","","","","","","","","","","",""
"12238","","image-button-response_instructions","7","114561","0.0-7.0","API7K4R8MF7VD","img_art/ins/popularity/ins2Extreme.png","0","instructions","","","","","","","","","","","","","","","","","","","","","","","",""
"5765","","image-button-response_instructions","8","120327","0.0-8.0","API7K4R8MF7VD","img_art/ins/popularity/ins3KEEPpop.PNG","0","instructions","","","","","","","","","","","","","","","","","","","","","","","",""
"4314","","image-button-response_instructions","9","124643","0.0-9.0","API7K4R8MF7VD","img_art/ins/popularity/ins3ANamepop.PNG","0","instructions","","","","","","","","","","","","","","","","","","","","","","","",""
"5313","","image-button-response_instructions","10","129957","0.0-10.0","API7K4R8MF7VD","img_art/ins/popularity/ins3ARatingpop.png","0","instructions","","","","","","","","","","","","","","","","","","","","","","","",""
"4129","","image-button-response_instructions","11","134087","0.0-11.0","API7K4R8MF7VD","img_art/ins/popularity/ins3ATextpop.png","0","instructions","","","","","","","","","","","","","","","","","","","","","","","",""
"4339","","image-button-response_instructions","12","138427","0.0-12.0","API7K4R8MF7VD","img_art/ins/popularity/ins3ALikespop.png","0","instructions","","","","","","","","","","","","","","","","","","","","","","","",""
"18929","","image-button-response_instructions","13","157357","0.0-13.0","API7K4R8MF7VD","img_art/ins/popularity/ins3KEEPpop.PNG","0","instructions","","","","","","","","","","","","","","","","","","","","","","","",""
"9461","","image-button-response_instructions","14","166819","0.0-14.0","API7K4R8MF7VD","img_art/ins/popularity/ins3_5RED.png","0","instructions","","","","","","","","","","","","","","","","","","","","","","","",""
"8916","","image-button-response_instructions","15","175737","0.0-15.0","API7K4R8MF7VD","img_art/ins/popularity/ins3KEEPpop.PNG","0","instructions","","","","","","","","","","","","","","","","","","","","","","","",""
"11411","","image-button-response_instructions","16","187149","0.0-16.0","API7K4R8MF7VD","img_art/ins/popularity/ins4KEEPpop.PNG","0","instructions","","","","","","","","","","","","","","","","","","","","","","","",""
"4159","","image-button-response_instructions","17","191308","0.0-17.0","API7K4R8MF7VD","img_art/ins/popularity/ins5KEEPpop.PNG","0","instructions","","","","","","","","","","","","","","","","","","","","","","","",""
"2369","","image-button-response_instructions","18","193679","0.0-18.0","API7K4R8MF7VD","","0","instructions","","","","","","","","","","","","","","","","","","","","","","","",""
"7428","","survey-text","19","201133","0.0-19.0-0.0","API7K4R8MF7VD","","","","{""Q0"":""but""}","","","","","","","","","","","","","","","","","","","","","","",""
"42754","","survey-text","20","243889","0.0-20.0-0.0","API7K4R8MF7VD","","","","{""Q0"":""reminds me of Neapolitan ice cream and is happy thoughts. ""}","","","","","","","","","","","","","","","","","","","","","","",""
"5245.4000000059605","","image-slider-response","21","249137","0.0-21.0","API7K4R8MF7VD","","","","","23","","","","","","","","","","","","","","","","","","","","","",""
"null","","image-button-response","22","254140","0.0-22.0","API7K4R8MF7VD","img_art/ins/1.jpg","null","","","","","","","","","","","","","","","","","","","","","","","","",""
"1329","","image-button-response","23","255471","0.0-23.0","API7K4R8MF7VD","img_art/ins/1.jpg","5","","","","","","","","","","","","","","","","","","","","","","","","",""
"17860","","image-button-response","24","273333","0.0-24.0-0.0","API7K4R8MF7VD","img_art/ins/1.jpg","4","","","","","","","","","","","","","","","","","","","","","","","","",""
"3417","","image-button-response","25","276752","0.0-25.0-0.0","API7K4R8MF7VD","img_art/ins/1.jpg","0","","","","","","","","","","","","","","","","","","","","","","","","",""
"null","","html-keyboard-response","26","277255","0.0-26.0","API7K4R8MF7VD","<p style=""font-size: 48px;"">+</p>","","","","","null","allTrialResponses","500","1","-2","img_art/ins/1.jpg","23","reminds me of Neapolitan ice cream and is happy thoughts. ","Allison,Ashley,Beth,Dora,Erika,Jen","looks like a lot of things going on in the mist,20,20,20","I just don't get why these type of art would be popular,-32,40,20","This color reminds me of poo,-46,60,20","looks like what my niece in 3rd grade did this afternoon,-50,80,20","I like the sophisticated brushwork,40,100,20","It reminds me of a candy land dream I had,36,120,20","Jen","It reminds me of a candy land dream I had,36,120,20","Erika","I like the sophisticated brushwork,40,100,20","Allison","looks like a lot of things going on in the mist,20,20,20","0"
"54947","","survey-text","27","332206","0.0-27.0-0.0","API7K4R8MF7VD","","","","{""Q0"":""dark colors feels like Autumn is coming  ""}","","","","","","","","","","","","","","","","","","","","","","",""
"3400.2000000029802","","image-slider-response","28","335608","0.0-28.0","API7K4R8MF7VD","","","","","40","","","","","","","","","","","","","","","","","","","","","",""
"null","","image-button-response","29","340611","0.0-29.0","API7K4R8MF7VD","img_art/ins/2.jpg","null","","","","","","","","","","","","","","","","","","","","","","","","",""
"1365","","image-button-response","30","341978","0.0-30.0","API7K4R8MF7VD","img_art/ins/2.jpg","5","","","","","","","","","","","","","","","","","","","","","","","","",""
"2098","","image-button-response","31","344078","0.0-31.0-0.0","API7K4R8MF7VD","img_art/ins/2.jpg","1","","","","","","","","","","","","","","","","","","","","","","","","",""
"5396","","image-button-response","32","349476","0.0-32.0-0.0","API7K4R8MF7VD","img_art/ins/2.jpg","4","","","","","","","","","","","","","","","","","","","","","","","","",""
"null","","html-keyboard-response","33","349977","0.0-33.0","API7K4R8MF7VD","<p style=""font-size: 48px;"">+</p>","","","","","null","allTrialResponses","500","1","-1","img_art/ins/2.jpg","40","dark colors feels like Autumn is coming  ","Allison,Kara,Katie,Jenna,Erika,Jen","I don't have strong feelings about this,10,20,20","I like the blocks of color arrangements,30,160,20","too much color!,-28,180,20","One of my pet peevs,-48,140,20","I would never be able to compose a sophisticated pallete like this,48,100,20","It reminds me of a fireplace,36,120,20","Jen","It reminds me of a fireplace,36,120,20","Kara","I like the blocks of color arrangements,30,160,20","Erika","I would never be able to compose a sophisticated pallete like this,48,100,20","0"
"34844","","survey-text","34","384825","0.0-34.0-0.0","API7K4R8MF7VD","","","","{""Q0"":""Artic ocean with glaciers and ice all around, feels crisp and refreshing.""}","","","","","","","","","","","","","","","","","","","","","","",""
"3474.4000000059605","","image-slider-response","35","388301","0.0-35.0","API7K4R8MF7VD","","","","","24","","","","","","","","","","","","","","","","","","","","","",""
"2942","","image-button-response","36","393303","0.0-36.0","API7K4R8MF7VD","img_art/ins/3.jpg","0","","","","","","","","","","","","","","","","","","","","","","","","",""
"1742","","image-button-response","37","395048","0.0-37.0","API7K4R8MF7VD","img_art/ins/3.jpg","5","","","","","","","","","","","","","","","","","","","","","","","","",""
"3266","","image-button-response","38","398315","0.0-38.0-0.0","API7K4R8MF7VD","img_art/ins/3.jpg","1","","","","","","","","","","","","","","","","","","","","","","","","",""
"2564","","image-button-response","39","400881","0.0-39.0-0.0","API7K4R8MF7VD","img_art/ins/3.jpg","0","","","","","","","","","","","","","","","","","","","","","","","","",""
"null","","html-keyboard-response","40","402389","0.0-40.0","API7K4R8MF7VD","<p style=""font-size: 48px;"">+</p>","","","","","null","allTrialResponses","1500","1","0","img_art/ins/3.jpg","24","Artic ocean with glaciers and ice all around, feels crisp and refreshing.","Mary,Kara,Rose,Leslie,Erika,Jen","I like the overlapping of brushes,41,220,20","calming blue is very nice,36,160,20","My daily routine, it's depressing,-20,240,20","It's an alright work,15,200,20","I feel connected to the artist,40,100,20","I can feel a rainy day from this painting,18,120,20","Jen","I can feel a rainy day from this painting,18,120,20","Kara","calming blue is very nice,36,160,20","Mary","I like the overlapping of brushes,41,220,20","0"
"5542","","image-button-response_instructions","41","407935","0.0-41.0","API7K4R8MF7VD","","0","instructions","","","","","","","","","","","","","","","","","","","","","","","",""
"20981","","survey-likert","42","428917","0.0-42.0-0.0","API7K4R8MF7VD","","","","{""Q0"":"""",""Q1"":0,""Q2"":1}","","","","","","","","","","","","","","","","","","","","","","",""
"5113","","survey-text","43","434037","0.0-43.0-0.0","API7K4R8MF7VD","","","","{""Q0"":""rock""}","","","","","","","","","","","","","","","","","","","","","","",""
"26186","","survey-text","44","460224","0.0-44.0-0.0","API7K4R8MF7VD","","","","{""Q0"":""it is chaos on a canvas to me, not a fan.""}","","","","","","","","","","","","","","","","","","","","","","",""
"2610.2999999970198","","image-slider-response","45","462836","0.0-45.0","API7K4R8MF7VD","","","","","-40","","","","","","","","","","","","","","","","","","","","","",""
"1987","","image-button-response","46","467861","0.0-46.0","API7K4R8MF7VD","img_art/30.jpg","1","","","","","","","","","","","","","","","","","","","","","","","","",""
"4642","","image-button-response","47","472506","0.0-47.0","API7K4R8MF7VD","img_art/30.jpg","0","","","","","","","","","","","","","","","","","","","","","","","","",""
"3597","","image-button-response","48","476104","0.0-48.0-0.0","API7K4R8MF7VD","img_art/30.jpg","1","","","","","","","","","","","","","","","","","","","","","","","","",""
"5881","","image-button-response","49","481987","0.0-49.0-0.0","API7K4R8MF7VD","img_art/30.jpg","4","","","","","","","","","","","","","","","","","","","","","","","","",""
"null","","html-keyboard-response","50","482493","0.0-50.0","API7K4R8MF7VD","<p style=""font-size: 48px;"">+</p>","","","","","null","allTrialResponses","500","1","1","img_art/30.jpg","-40","it is chaos on a canvas to me, not a fan.","Mary,Melissa,Kayla,Amanda,Stephanie,Courtney","I hate this piece. It looks like a child created it. The colors are awful.,-46,180,20","muddy, feels unintentional,-50,240,20","It's soothing- the page is full, but there aren't too many things happening.,23,180,20","Love how the red stands out,20,180,20","My kindergarten class could do this,-50,300,20","Some people dancing.,-7,280,20","Mary","I hate this piece. It looks like a child created it. The colors are awful.,-46,180,20","Melissa","muddy, feels unintentional,-50,240,20","Stephanie","My kindergarten class could do this,-50,300,20","0"
"43497","","survey-text","51","525994","0.0-51.0-0.0","API7K4R8MF7VD","","","","{""Q0"":""It looks like a dragon attacking a ship at sea but the painting had water spilled on it and it smeared.""}","","","","","","","","","","","","","","","","","","","","","","",""
"8412.20000000298","","image-slider-response","52","534408","0.0-52.0","API7K4R8MF7VD","","","","","1","","","","","","","","","","","","","","","","","","","","","",""
"4590","","image-button-response","53","539410","0.0-53.0","API7K4R8MF7VD","img_art/21.jpg","4","","","","","","","","","","","","","","","","","","","","","","","","",""
"2026","","image-button-response","54","541438","0.0-54.0","API7K4R8MF7VD","img_art/21.jpg","4","","","","","","","","","","","","","","","","","","","","","","","","",""
"4490","","image-button-response","55","545934","0.0-55.0-0.0","API7K4R8MF7VD","img_art/21.jpg","5","","","","","","","","","","","","","","","","","","","","","","","","",""
"1995","","image-button-response","56","547932","0.0-56.0-0.0","API7K4R8MF7VD","img_art/21.jpg","1","","","","","","","","","","","","","","","","","","","","","","","","",""
"null","","html-keyboard-response","57","549433","0.0-57.0","API7K4R8MF7VD","<p style=""font-size: 48px;"">+</p>","","","","","null","allTrialResponses","1500","1","2","img_art/21.jpg","1","It looks like a dragon attacking a ship at sea but the painting had water spilled on it and it smeared.","Mary,Melissa,Vanessa,Kimberly,Stephanie,Savannah","This is lovely. I like the mix of colors, the warn and cool slowly combining.,39,180,20","feels like a harbor scene,11,240,20","The colors and softness work together to make something that's lovely.,42,380,20","Another swathe of ocean,31,260,20","A battle at sea, the red is a bomb exploding.,-31,300,20","Almost appears like the background of an old renaissance painting.,40,200,20","Stephanie","A battle at sea, the red is a bomb exploding.,-31,300,20","Savannah","Almost appears like the background of an old renaissance painting.,40,200,20","Melissa","feels like a harbor scene,11,240,20","0"
"36534","","survey-text","58","585970","0.0-58.0-0.0","API7K4R8MF7VD","","","","{""Q0"":""I honestly can not come to a conclusion with this one. ""}","","","","","","","","","","","","","","","","","","","","","","",""
"8375.60000000894","","image-slider-response","59","594348","0.0-59.0","API7K4R8MF7VD","","","","","-1","","","","","","","","","","","","","","","","","","","","","",""
"4450","","image-button-response","60","599350","0.0-60.0","API7K4R8MF7VD","img_art/5.jpg","3","","","","","","","","","","","","","","","","","","","","","","","","",""
"1710","","image-button-response","61","601062","0.0-61.0","API7K4R8MF7VD","img_art/5.jpg","4","","","","","","","","","","","","","","","","","","","","","","","","",""
"2826","","image-button-response","62","603890","0.0-62.0-0.0","API7K4R8MF7VD","img_art/5.jpg","5","","","","","","","","","","","","","","","","","","","","","","","","",""
"2764","","image-button-response","63","606656","0.0-63.0-0.0","API7K4R8MF7VD","img_art/5.jpg","3","","","","","","","","","","","","","","","","","","","","","","","","",""
"null","","html-keyboard-response","64","607158","0.0-64.0","API7K4R8MF7VD","<p style=""font-size: 48px;"">+</p>","","","","","null","allTrialResponses","500","1","3","img_art/5.jpg","-1","I honestly can not come to a conclusion with this one. ","Destiny,Melissa,Dominique,Anna,Stephanie,Savannah","Just doesn't do a whole lot for me. I see Cinderellas broom,-11,360,20","strong appeal in contrast,27,240,20","It speaks volumes to some. It's also a conversational piece. And very different ideas,34,400,20","It's kind of boring.,-20,300,20","This did not do a thing for me.,-50,300,20","Boring and appears low effort,-41,200,20","Stephanie","This did not do a thing for me.,-50,300,20","Savannah","Boring and appears low effort,-41,200,20","Anna","It's kind of boring.,-20,300,20","0"
"17730","","survey-text","65","624892","0.0-65.0-0.0","API7K4R8MF7VD","","","","{""Q0"":""I do not like this at all, very creepy.""}","","","","","","","","","","","","","","","","","","","","","","",""
"2626.1000000089407","","image-slider-response","66","627519","0.0-66.0","API7K4R8MF7VD","","","","","-50","","","","","","","","","","","","","","","","","","","","","",""
"null","","image-button-response","67","632522","0.0-67.0","API7K4R8MF7VD","img_art/16.jpg","null","","","","","","","","","","","","","","","","","","","","","","","","",""
"2167","","image-button-response","68","634690","0.0-68.0","API7K4R8MF7VD","img_art/16.jpg","4","","","","","","","","","","","","","","","","","","","","","","","","",""
"2779","","image-button-response","69","637472","0.0-69.0-0.0","API7K4R8MF7VD","img_art/16.jpg","1","","","","","","","","","","","","","","","","","","","","","","","","",""
"1250","","image-button-response","70","638723","0.0-70.0-0.0","API7K4R8MF7VD","img_art/16.jpg","0","","","","","","","","","","","","","","","","","","","","","","","","",""
"null","","html-keyboard-response","71","640239","0.0-71.0","API7K4R8MF7VD","<p style=""font-size: 48px;"">+</p>","","","","","null","allTrialResponses","1500","1","4","img_art/16.jpg","-50","I do not like this at all, very creepy.","Heather,Mikayla,Haley,Anna,Stephanie,Savannah","lol i dont know how i feel about this.,1,260,20","The teddy bear is scary as hell.,-44,300,20","Makes me want to know more,5,220,20","It's edgy but cool,10,300,20","It looks violent.,-30,300,20","A strange collage made by a child. Do not like the colored face of the bear.,-29,200,20","Stephanie","It looks violent.,-30,300,20","Mikayla","The teddy bear is scary as hell.,-44,300,20","Heather","lol i dont know how i feel about this.,1,260,20","0"
"20618","","survey-text","72","660861","0.0-72.0-0.0","API7K4R8MF7VD","","","","{""Q0"":""This one gives me anxiety and triggers my OCD!""}","","","","","","","","","","","","","","","","","","","","","","",""
"2730.2999999970198","","image-slider-response","73","663593","0.0-73.0","API7K4R8MF7VD","","","","","-50","","","","","","","","","","","","","","","","","","","","","",""
"null","","image-button-response","74","668596","0.0-74.0","API7K4R8MF7VD","img_art/3.jpg","null","","","","","","","","","","","","","","","","","","","","","","","","",""
"5716","","image-button-response","75","674313","0.0-75.0","API7K4R8MF7VD","img_art/3.jpg","0","","","","","","","","","","","","","","","","","","","","","","","","",""
"9921","","image-button-response","76","684235","0.0-76.0-0.0","API7K4R8MF7VD","img_art/3.jpg","5","","","","","","","","","","","","","","","","","","","","","","","","",""
"4204","","image-button-response","77","688441","0.0-77.0-0.0","API7K4R8MF7VD","img_art/3.jpg","4","","","","","","","","","","","","","","","","","","","","","","","","",""
"null","","html-keyboard-response","78","689943","0.0-78.0","API7K4R8MF7VD","<p style=""font-size: 48px;"">+</p>","","","","","null","allTrialResponses","1500","1","5","img_art/3.jpg","-50","This one gives me anxiety and triggers my OCD!","Heather,Mikayla,Katherine,Natalie,Stephanie,Miranda","Blood splatter and one black spot.,1,260,20","Scary. Looks like blood.,-45,300,20","Too much red! Reminds me of blood. I hate blood.,-34,120,20","my response to the picture is a lot of red, danger,,-21,400,20","I think of an angry child,-50,300,20","It just makes me think of blood splattered everywhere.,-31,320,20","Heather","Blood splatter and one black spot.,1,260,20","Miranda","It just makes me think of blood splattered everywhere.,-31,320,20","Stephanie","I think of an angry child,-50,300,20","0"
"5351","","survey-text","79","695301","0.0-79.0-0.0","API7K4R8MF7VD","","","","{""Q0"":""sky""}","","","","","","","","","","","","","","","","","","","","","","",""
"22802","","survey-text","80","718105","0.0-80.0-0.0","API7K4R8MF7VD","","","","{""Q0"":""I dont get it""}","","","","","","","","","","","","","","","","","","","","","","",""
"2622.2999999970198","","image-slider-response","81","720728","0.0-81.0","API7K4R8MF7VD","","","","","-50","","","","","","","","","","","","","","","","","","","","","",""
"3666","","image-button-response","82","725742","0.0-82.0","API7K4R8MF7VD","img_art/10.jpg","3","","","","","","","","","","","","","","","","","","","","","","","","",""
"4855","","image-button-response","83","730599","0.0-83.0","API7K4R8MF7VD","img_art/10.jpg","5","","","","","","","","","","","","","","","","","","","","","","","","",""
"5776","","image-button-response","84","736376","0.0-84.0-0.0","API7K4R8MF7VD","img_art/10.jpg","0","","","","","","","","","","","","","","","","","","","","","","","","",""
"1878","","image-button-response","85","738257","0.0-85.0-0.0","API7K4R8MF7VD","img_art/10.jpg","3","","","","","","","","","","","","","","","","","","","","","","","","",""
"null","","html-keyboard-response","86","739259","0.0-86.0","API7K4R8MF7VD","<p style=""font-size: 48px;"">+</p>","","","","","null","allTrialResponses","1000","1","6","img_art/10.jpg","-50","I dont get it","Heather,Laura,Emma,Alexis,Stephanie,Miranda","for some reason reminds me of music,2,260,20","I feel a state of readiness without anxiety.,24,320,20","Feels musical .....,40,60,20","Too abstract and it doesn't really remind me of anything,-40,100,20","The black color is depressing.,-50,300,20","It reminds me of how my dog has to run all over the place just to poop in one specific location.,-20,320,20","Miranda","It reminds me of how my dog has to run all over the place just to poop in one specific location.,-20,320,20","Heather","for some reason reminds me of music,2,260,20","Alexis","Too abstract and it doesn't really remind me of anything,-40,100,20","0"
"40981","","survey-text","87","780244","0.0-87.0-0.0","API7K4R8MF7VD","","","","{""Q0"":""I love the colour blocking and the wind is blowing on the city.""}","","","","","","","","","","","","","","","","","","","","","","",""
"3153.7999999970198","","image-slider-response","88","783400","0.0-88.0","API7K4R8MF7VD","","","","","39","","","","","","","","","","","","","","","","","","","","","",""
"null","","image-button-response","89","788403","0.0-89.0","API7K4R8MF7VD","img_art/8.jpg","null","","","","","","","","","","","","","","","","","","","","","","","","",""
"921","","image-button-response","90","789326","0.0-90.0","API7K4R8MF7VD","img_art/8.jpg","3","","","","","","","","","","","","","","","","","","","","","","","","",""
"2026","","image-button-response","91","791354","0.0-91.0-0.0","API7K4R8MF7VD","img_art/8.jpg","4","","","","","","","","","","","","","","","","","","","","","","","","",""
"2068","","image-button-response","92","793424","0.0-92.0-0.0","API7K4R8MF7VD","img_art/8.jpg","5","","","","","","","","","","","","","","","","","","","","","","","","",""
"null","","html-keyboard-response","93","793926","0.0-93.0","API7K4R8MF7VD","<p style=""font-size: 48px;"">+</p>","","","","","null","allTrialResponses","500","1","7","img_art/8.jpg","39","I love the colour blocking and the wind is blowing on the city.","Heather,Julia,Maria,Alexis,Isabella,Miranda","woman looking over a the community,1,260,20","it's a little too classical for my tastes,-25,40,20","not sure what to make of this - just neutral again,-1,120,20","Reminds me of old 80s fantasy book covers. Nostalgic,23,100,20","Ancient city looked after by diety,38,280,20","I like this, the longer I look at in the more details I see.,41,320,20","Alexis","Reminds me of old 80s fantasy book covers. Nostalgic,23,100,20","Isabella","Ancient city looked after by diety,38,280,20","Miranda","I like this, the longer I look at in the more details I see.,41,320,20","0"
"55952","","survey-text","94","849881","0.0-94.0-0.0","API7K4R8MF7VD","","","","{""Q0"":""Very industrial yet colourful, like candy strings almost.""}","","","","","","","","","","","","","","","","","","","","","","",""
"2396.2999999970198","","image-slider-response","95","852279","0.0-95.0","API7K4R8MF7VD","","","","","39","","","","","","","","","","","","","","","","","","","","","",""
"null","","image-button-response","96","857289","0.0-96.0","API7K4R8MF7VD","img_art/11.jpg","null","","","","","","","","","","","","","","","","","","","","","","","","",""
"4235","","image-button-response","97","861526","0.0-97.0","API7K4R8MF7VD","img_art/11.jpg","2","","","","","","","","","","","","","","","","","","","","","","","","",""
"4868","","image-button-response","98","866396","0.0-98.0-0.0","API7K4R8MF7VD","img_art/11.jpg","4","","","","","","","","","","","","","","","","","","","","","","","","",""
"8588","","image-button-response","99","874986","0.0-99.0-0.0","API7K4R8MF7VD","img_art/11.jpg","5","","","","","","","","","","","","","","","","","","","","","","","","",""
"null","","html-keyboard-response","100","876487","0.0-100.0","API7K4R8MF7VD","<p style=""font-size: 48px;"">+</p>","","","","","null","allTrialResponses","1500","1","8","img_art/11.jpg","39","Very industrial yet colourful, like candy strings almost.","Christina,Jennifer,Cassandra,Alexis,Isabella,Miranda","I like how it looks like buildings but i'm not a fan of colors,20,240,20","The narrow groups of lines in the center make me feel uneasy for some reason,-31,380,20","I liked it it looked like an roller coasters at an amusment park.,16,120,20","Don't like cityscapes, which this picture reminds me of,-29,100,20","City on a hill, tranquility,42,280,20","This one is a little erie, gives me post-apocalyptic feeling,27,320,20","Cassandra","I liked it it looked like an roller coasters at an amusment park.,16,120,20","Isabella","City on a hill, tranquility,42,280,20","Miranda","This one is a little erie, gives me post-apocalyptic feeling,27,320,20","0"
"18083","","survey-text","101","894573","0.0-101.0-0.0","API7K4R8MF7VD","","","","{""Q0"":""boring. ""}","","","","","","","","","","","","","","","","","","","","","","",""
"4068","","image-slider-response","102","898643","0.0-102.0","API7K4R8MF7VD","","","","","-50","","","","","","","","","","","","","","","","","","","","","",""
"null","","image-button-response","103","903661","0.0-103.0","API7K4R8MF7VD","img_art/26.jpg","null","","","","","","","","","","","","","","","","","","","","","","","","",""
"5319","","image-button-response","104","908981","0.0-104.0","API7K4R8MF7VD","img_art/26.jpg","1","","","","","","","","","","","","","","","","","","","","","","","","",""
"6680","","image-button-response","105","915663","0.0-105.0-0.0","API7K4R8MF7VD","img_art/26.jpg","2","","","","","","","","","","","","","","","","","","","","","","","","",""
"9435","","image-button-response","106","925101","0.0-106.0-0.0","API7K4R8MF7VD","img_art/26.jpg","4","","","","","","","","","","","","","","","","","","","","","","","","",""
"null","","html-keyboard-response","107","925603","0.0-107.0","API7K4R8MF7VD","<p style=""font-size: 48px;"">+</p>","","","","","null","allTrialResponses","500","1","9","img_art/26.jpg","-50","boring. ","Danielle,Marissa,Cassandra,Rachel,Isabella,Miranda","It's a little too yellow-y for me, I'm not a huge fan of the color schemes or setting it portrays.,-20,340,20","It feels simple and pretty,12,160,20","Neutral...nothing to say.,3,120,20","Pretty trees and bushes around fancy brown stones. I like the soft nature.,20,80,20","Colors are full and reminds me of a messy room,-9,280,20","This seems pretty and sweet, it's something I would like to actually see.,31,320,20","Marissa","It feels simple and pretty,12,160,20","Cassandra","Neutral...nothing to say.,3,120,20","Isabella","Colors are full and reminds me of a messy room,-9,280,20","0"
"29058","","survey-text","108","954665","0.0-108.0-0.0","API7K4R8MF7VD","","","","{""Q0"":""reminds me of the 80's i like it ""}","","","","","","","","","","","","","","","","","","","","","","",""
"2640.4000000059605","","image-slider-response","109","957307","0.0-109.0","API7K4R8MF7VD","","","","","35","","","","","","","","","","","","","","","","","","","","","",""
"2050","","image-button-response","110","962314","0.0-110.0","API7K4R8MF7VD","img_art/13.jpg","0","","","","","","","","","","","","","","","","","","","","","","","","",""
"1658","","image-button-response","111","963973","0.0-111.0","API7K4R8MF7VD","img_art/13.jpg","0","","","","","","","","","","","","","","","","","","","","","","","","",""
"2271","","image-button-response","112","966245","0.0-112.0-0.0","API7K4R8MF7VD","img_art/13.jpg","0","","","","","","","","","","","","","","","","","","","","","","","","",""
"4079","","image-button-response","113","974688","0.0-112.1-0.1","API7K4R8MF7VD","img_art/13.jpg","4","","","","","","","","","","","","","","","","","","","","","","","","",""
"4108","","image-button-response","114","978797","0.0-113.0-0.0","API7K4R8MF7VD","img_art/13.jpg","1","","","","","","","","","","","","","","","","","","","","","","","","",""
"null","","html-keyboard-response","115","979307","0.0-114.0","API7K4R8MF7VD","<p style=""font-size: 48px;"">+</p>","","","","","null","allTrialResponses","500","1","10","img_art/13.jpg","35","reminds me of the 80's i like it ","Alicia,Marissa,Cassandra,Shelby,Isabella,Meghan","meh, 80's. retro,-9,120,20","It reminds me of looking out the window on a stormy night at cars drive by,21,160,20","I love the colors and the texture,37,120,20","Doesnt really provoke an emotional responce,0,240,20","Rain drops on a window,35,280,20","I like the transition to other colors,24,220,20","Alicia","meh, 80's. retro,-9,120,20","Isabella","Rain drops on a window,35,280,20","Marissa","It reminds me of looking out the window on a stormy night at cars drive by,21,160,20","2"
"4707","","survey-text","116","984021","0.0-115.0-0.0","API7K4R8MF7VD","","","","{""Q0"":""our""}","","","","","","","","","","","","","","","","","","","","","","",""
"19049","","survey-text","117","1003071","0.0-116.0-0.0","API7K4R8MF7VD","","","","{""Q0"":""hideous""}","","","","","","","","","","","","","","","","","","","","","","",""
"3482.2000000029802","","image-slider-response","118","1006555","0.0-117.0","API7K4R8MF7VD","","","","","-50","","","","","","","","","","","","","","","","","","","","","",""
"null","","image-button-response","119","1011565","0.0-118.0","API7K4R8MF7VD","img_art/9.jpg","null","","","","","","","","","","","","","","","","","","","","","","","","",""
"8808","","image-button-response","120","1020375","0.0-119.0","API7K4R8MF7VD","img_art/9.jpg","4","","","","","","","","","","","","","","","","","","","","","","","","",""
"21007","","image-button-response","121","1041385","0.0-120.0-0.0","API7K4R8MF7VD","img_art/9.jpg","5","","","","","","","","","","","","","","","","","","","","","","","","",""
"4251","","image-button-response","122","1045639","0.0-121.0-0.0","API7K4R8MF7VD","img_art/9.jpg","3","","","","","","","","","","","","","","","","","","","","","","","","",""
"null","","html-keyboard-response","123","1047140","0.0-122.0","API7K4R8MF7VD","<p style=""font-size: 48px;"">+</p>","","","","","null","allTrialResponses","1500","1","11","img_art/9.jpg","-50","hideous","Alicia,Marissa,Megan,Chelsea,Isabella,Elizabeth","Abstract titanic scene. It's nice though. I like how it makes me feel.,28,120,20","It makes me think of Snow White sleeping,11,160,20","A troubled painter was influenced by anger and mad at the woman in the middle, color not bad,-32,200,20","I don't like the obvious lines of colored pencil on the border.,-24,180,20","Angry beast mouth,-37,280,20","Love the uniqueness,21,20,20","Isabella","Angry beast mouth,-37,280,20","Elizabeth","Love the uniqueness,21,20,20","Chelsea","I don't like the obvious lines of colored pencil on the border.,-24,180,20","2"
"55632","","survey-text","124","1102776","0.0-123.0-0.0","API7K4R8MF7VD","","","","{""Q0"":""looks like a western scene my papa would of paint.""}","","","","","","","","","","","","","","","","","","","","","","",""
"9806.10000000894","","image-slider-response","125","1112584","0.0-124.0","API7K4R8MF7VD","","","","","34","","","","","","","","","","","","","","","","","","","","","",""
"null","","image-button-response","126","1117593","0.0-125.0","API7K4R8MF7VD","img_art/20.jpg","null","","","","","","","","","","","","","","","","","","","","","","","","",""
"12413","","image-button-response","127","1130008","0.0-126.0","API7K4R8MF7VD","img_art/20.jpg","3","","","","","","","","","","","","","","","","","","","","","","","","",""
"1666","","image-button-response","128","1131676","0.0-127.0-0.0","API7K4R8MF7VD","img_art/20.jpg","0","","","","","","","","","","","","","","","","","","","","","","","","",""
"2920","","image-button-response","129","1134598","0.0-128.0-0.0","API7K4R8MF7VD","img_art/20.jpg","1","","","","","","","","","","","","","","","","","","","","","","","","",""
"null","","html-keyboard-response","130","1135599","0.0-129.0","API7K4R8MF7VD","<p style=""font-size: 48px;"">+</p>","","","","","null","allTrialResponses","1000","1","12","img_art/20.jpg","34","looks like a western scene my papa would of paint.","Amber,Erika,Catherine,Chelsea,Isabella,Elizabeth","Bold strokes and colors.,6,200,20","The artist had very strong feelings, bold colors,28,100,20","Interesting. Empty place, wondering what happened, leaving what you used to know.,10,160,20","It is abstract but it looks neat.,15,180,20","Feels like a town destroyed,-19,280,20","This painting would make a great display art,50,20,20","Chelsea","It is abstract but it looks neat.,15,180,20","Amber","Bold strokes and colors.,6,200,20","Erika","The artist had very strong feelings, bold colors,28,100,20","2"
"118054","","survey-text","131","1253657","0.0-130.0-0.0","API7K4R8MF7VD","","","","{""Q0"":""messy""}","","","","","","","","","","","","","","","","","","","","","","",""
"270723","","survey-text","132","1526273","0.0-130.1-0.1","API7K4R8MF7VD","","","","{""Q0"":""spilled pea soup and ketchup""}","","","","","","","","","","","","","","","","","","","","","","",""
"2945.5999999940395","","image-slider-response","133","1529221","0.0-131.0","API7K4R8MF7VD","","","","","-50","","","","","","","","","","","","","","","","","","","","","",""
"3830","","image-button-response","134","1534224","0.0-132.0","API7K4R8MF7VD","img_art/2.jpg","5","","","","","","","","","","","","","","","","","","","","","","","","",""
"881","","image-button-response","135","1535107","0.0-133.0","API7K4R8MF7VD","img_art/2.jpg","2","","","","","","","","","","","","","","","","","","","","","","","","",""
"6604","","image-button-response","136","1541713","0.0-134.0-0.0","API7K4R8MF7VD","img_art/2.jpg","3","","","","","","","","","","","","","","","","","","","","","","","","",""
"870","","image-button-response","137","1542585","0.0-135.0-0.0","API7K4R8MF7VD","img_art/2.jpg","5","","","","","","","","","","","","","","","","","","","","","","","","",""
"null","","html-keyboard-response","138","1544087","0.0-136.0","API7K4R8MF7VD","<p style=""font-size: 48px;"">+</p>","","","","","null","allTrialResponses","1500","1","13","img_art/2.jpg","-50","spilled pea soup and ketchup","Amber,Erika,Taylor,Chelsea,Olivia,Madeline","bright and happy,20,200,20","Indistinct and too bright,-21,100,20","Doesn't give me a reaction,10,340,20","Not sure what is happening. I'm not a big fan of the colors but they don't bother me either.,1,180,20","i liked the bright colors,13,40,20","I don't really like this style,-5,40,20","Taylor","Doesn't give me a reaction,10,340,20","Chelsea","Not sure what is happening. I'm not a big fan of the colors but they don't bother me either.,1,180,20","Madeline","I don't really like this style,-5,40,20","2"
"18078","","survey-text","139","1562169","0.0-137.0-0.0","API7K4R8MF7VD","","","","{""Q0"":""Mars rover images.""}","","","","","","","","","","","","","","","","","","","","","","",""
"2712.3999999910593","","image-slider-response","140","1564883","0.0-138.0","API7K4R8MF7VD","","","","","-2","","","","","","","","","","","","","","","","","","","","","",""
"null","","image-button-response","141","1569885","0.0-139.0","API7K4R8MF7VD","img_art/7.jpg","null","","","","","","","","","","","","","","","","","","","","","","","","",""
"731","","image-button-response","142","1570617","0.0-140.0","API7K4R8MF7VD","img_art/7.jpg","2","","","","","","","","","","","","","","","","","","","","","","","","",""
"4966","","image-button-response","143","1575585","0.0-141.0-0.0","API7K4R8MF7VD","img_art/7.jpg","5","","","","","","","","","","","","","","","","","","","","","","","","",""
"6083","","image-button-response","144","1581671","0.0-142.0-0.0","API7K4R8MF7VD","img_art/7.jpg","1","","","","","","","","","","","","","","","","","","","","","","","","",""
"null","","html-keyboard-response","145","1583173","0.0-143.0","API7K4R8MF7VD","<p style=""font-size: 48px;"">+</p>","","","","","null","allTrialResponses","1500","1","14","img_art/7.jpg","-2","Mars rover images.","Kelly,Michaela,Taylor,Chelsea,Katelyn,Madeline","My firs thought was ""gross""...not sure what this is and I dont think i want to know.,-19,220,20","It looks like maybe some seeds?,14,260,20","It makes me think of new archaeology discoveries,15,340,20","It looks more like wallpaper rather than a painting.,-27,180,20","Makes me think of the beach which makes me happy,14,100,20","Not very big on the sameness here,-20,40,20","Taylor","It makes me think of new archaeology discoveries,15,340,20","Madeline","Not very big on the sameness here,-20,40,20","Michaela","It looks like maybe some seeds?,14,260,20","2"
"24529","","survey-text","146","1607706","0.0-144.0-0.0","API7K4R8MF7VD","","","","{""Q0"":""Makes me want chips from Mc Donalds""}","","","","","","","","","","","","","","","","","","","","","","",""
"3277.7999999970198","","image-slider-response","147","1610986","0.0-145.0","API7K4R8MF7VD","","","","","3","","","","","","","","","","","","","","","","","","","","","",""
"null","","image-button-response","148","1616003","0.0-146.0","API7K4R8MF7VD","img_art/4.jpg","null","","","","","","","","","","","","","","","","","","","","","","","","",""
"1179","","image-button-response","149","1617184","0.0-147.0","API7K4R8MF7VD","img_art/4.jpg","5","","","","","","","","","","","","","","","","","","","","","","","","",""
"5584","","image-button-response","150","1622770","0.0-148.0-0.0","API7K4R8MF7VD","img_art/4.jpg","1","","","","","","","","","","","","","","","","","","","","","","","","",""
"3069","","image-button-response","151","1625842","0.0-149.0-0.0","API7K4R8MF7VD","img_art/4.jpg","3","","","","","","","","","","","","","","","","","","","","","","","","",""
"null","","html-keyboard-response","152","1626344","0.0-150.0","API7K4R8MF7VD","<p style=""font-size: 48px;"">+</p>","","","","","null","allTrialResponses","500","1","15","img_art/4.jpg","3","Makes me want chips from Mc Donalds","Brianna,Michaela,Taylor,Leah,Jacqueline,Madeline","Really don't care for the yellowish brown color in the center.,-19,20,20","It reminds me of something a kid would make for their parents,13,260,20","Reminds me of a first place trophy,30,340,20","To me just looking at paint scrawls,-41,360,20","It looks like smeared poop.,-27,300,20","Not impressed really,-20,40,20","Madeline","Not impressed really,-20,40,20","Michaela","It reminds me of something a kid would make for their parents,13,260,20","Leah","To me just looking at paint scrawls,-41,360,20","2"
"4820","","survey-text","153","1631176","0.0-151.0-0.0","API7K4R8MF7VD","","","","{""Q0"":""course""}","","","","","","","","","","","","","","","","","","","","","","",""
"24688","","survey-text","154","1655865","0.0-152.0-0.0","API7K4R8MF7VD","","","","{""Q0"":""Looks like a picture in my Dentist office. Scary!""}","","","","","","","","","","","","","","","","","","","","","","",""
"2862.5","","image-slider-response","155","1658730","0.0-153.0","API7K4R8MF7VD","","","","","-50","","","","","","","","","","","","","","","","","","","","","",""
"null","","image-button-response","156","1663732","0.0-154.0","API7K4R8MF7VD","img_art/14.jpg","null","","","","","","","","","","","","","","","","","","","","","","","","",""
"839","","image-button-response","157","1664573","0.0-155.0","API7K4R8MF7VD","img_art/14.jpg","2","","","","","","","","","","","","","","","","","","","","","","","","",""
"12282","","image-button-response","158","1676857","0.0-156.0-0.0","API7K4R8MF7VD","img_art/14.jpg","4","","","","","","","","","","","","","","","","","","","","","","","","",""
"3234","","image-button-response","159","1680093","0.0-157.0-0.0","API7K4R8MF7VD","img_art/14.jpg","5","","","","","","","","","","","","","","","","","","","","","","","","",""
"null","","html-keyboard-response","160","1681094","0.0-158.0","API7K4R8MF7VD","<p style=""font-size: 48px;"">+</p>","","","","","null","allTrialResponses","1000","1","16","img_art/14.jpg","-50","Looks like a picture in my Dentist office. Scary!","Nicole,Michaela,Leslie,Leah,Bailey,Madeline","This reminds me of the Lion King somehow! Feels inspiring,30,20,20","I just really like light and wispy things,33,260,20","This elicits no reaction in me.,0,380,20","I like the simplicity along with the colors,27,360,20","Not quite the style I'd like, but it does have a certain air of emptiness.,12,360,20","It looks nice colorwise but detail is lacking,18,40,20","Leslie","This elicits no reaction in me.,0,380,20","Bailey","Not quite the style I'd like, but it does have a certain air of emptiness.,12,360,20","Madeline","It looks nice colorwise but detail is lacking,18,40,20","2"
"22292","","survey-text","161","1703390","0.0-159.0-0.0","API7K4R8MF7VD","","","","{""Q0"":""makes me feel sad sort of. ""}","","","","","","","","","","","","","","","","","","","","","","",""
"2612.3999999910593","","image-slider-response","162","1706004","0.0-160.0","API7K4R8MF7VD","","","","","-49","","","","","","","","","","","","","","","","","","","","","",""
"4335","","image-button-response","163","1711006","0.0-161.0","API7K4R8MF7VD","img_art/6.jpg","1","","","","","","","","","","","","","","","","","","","","","","","","",""
"2762","","image-button-response","164","1713770","0.0-162.0","API7K4R8MF7VD","img_art/6.jpg","4","","","","","","","","","","","","","","","","","","","","","","","","",""
"913","","image-button-response","165","1714686","0.0-163.0-0.0","API7K4R8MF7VD","img_art/6.jpg","3","","","","","","","","","","","","","","","","","","","","","","","","",""
"4185","","image-button-response","166","1718872","0.0-164.0-0.0","API7K4R8MF7VD","img_art/6.jpg","1","","","","","","","","","","","","","","","","","","","","","","","","",""
"null","","html-keyboard-response","167","1719374","0.0-165.0","API7K4R8MF7VD","<p style=""font-size: 48px;"">+</p>","","","","","null","allTrialResponses","500","1","17","img_art/6.jpg","-49","makes me feel sad sort of. ","Tiffany,Crystal,Leslie,Claire,Bailey,Madeline","The painting makes me happy. Like I'm looking at a little bird.,6,360,20","Gives me a feeling of solitude and nothingness,11,300,20","The limited colors make me feel lonely.,36,380,20","very minimalistic,22,260,20","Not my favorite, but I like the empty vibe and the imagination it invokes. A skinny girl with long legs, perhaps, looking over a cliff,9,360,20","Looks a bit like a pickle or something?,-16,40,20","Bailey","Not my favorite, but I like the empty vibe and the imagination it invokes. A skinny girl with long legs, perhaps, looking over a cliff,9,360,20","Claire","very minimalistic,22,260,20","Crystal","Gives me a feeling of solitude and nothingness,11,300,20","2"
"28451","","survey-text","168","1747829","0.0-166.0-0.0","API7K4R8MF7VD","","","","{""Q0"":""I live somewhere that has waterfalls like this. ""}","","","","","","","","","","","","","","","","","","","","","","",""
"2192.2999999970198","","image-slider-response","169","1750023","0.0-167.0","API7K4R8MF7VD","","","","","50","","","","","","","","","","","","","","","","","","","","","",""
"3911","","image-button-response","170","1755025","0.0-168.0","API7K4R8MF7VD","img_art/24.jpg","3","","","","","","","","","","","","","","","","","","","","","","","","",""
"796","","image-button-response","171","1755823","0.0-169.0","API7K4R8MF7VD","img_art/24.jpg","3","","","","","","","","","","","","","","","","","","","","","","","","",""
"1449","","image-button-response","172","1757273","0.0-170.0-0.0","API7K4R8MF7VD","img_art/24.jpg","0","","","","","","","","","","","","","","","","","","","","","","","","",""
"3286","","image-button-response","173","1760561","0.0-171.0-0.0","API7K4R8MF7VD","img_art/24.jpg","2","","","","","","","","","","","","","","","","","","","","","","","","",""
"null","","html-keyboard-response","174","1761563","0.0-172.0","API7K4R8MF7VD","<p style=""font-size: 48px;"">+</p>","","","","","null","allTrialResponses","1000","1","18","img_art/24.jpg","50","I live somewhere that has waterfalls like this. ","Grace,Crystal,Makayla,Claire,Bailey,Michelle","Abstract falls & nature.,41,180,20","I don't like this painting because of its blottedness. It lacks conviction, direction and purpose.,-31,300,20","Looks like a serene waterfall and woods,29,80,20","reminds me of a beautiful waterfall,50,260,20","Feels surreal, in a way, and vibrant,37,360,20","Looks like a waterfall or a brook, the colors are very nice,15,280,20","Claire","reminds me of a beautiful waterfall,50,260,20","Grace","Abstract falls & nature.,41,180,20","Makayla","Looks like a serene waterfall and woods,29,80,20","2"
"23136","","survey-text","175","1784703","0.0-173.0-0.0","API7K4R8MF7VD","","","","{""Q0"":""I think they left this out in the rain and it rusted.""}","","","","","","","","","","","","","","","","","","","","","","",""
"2432.5999999940395","","image-slider-response","176","1787137","0.0-174.0","API7K4R8MF7VD","","","","","-2","","","","","","","","","","","","","","","","","","","","","",""
"null","","image-button-response","177","1792143","0.0-175.0","API7K4R8MF7VD","img_art/1.jpg","null","","","","","","","","","","","","","","","","","","","","","","","","",""
"54592","","image-button-response","178","1846737","0.0-176.0","API7K4R8MF7VD","img_art/1.jpg","2","","","","","","","","","","","","","","","","","","","","","","","","",""
"2242","","image-button-response","179","1848981","0.0-177.0-0.0","API7K4R8MF7VD","img_art/1.jpg","5","","","","","","","","","","","","","","","","","","","","","","","","",""
"3936","","image-button-response","180","1852919","0.0-178.0-0.0","API7K4R8MF7VD","img_art/1.jpg","4","","","","","","","","","","","","","","","","","","","","","","","","",""
"null","","html-keyboard-response","181","1853421","0.0-179.0","API7K4R8MF7VD","<p style=""font-size: 48px;"">+</p>","","","","","null","allTrialResponses","500","1","19","img_art/1.jpg","-2","I think they left this out in the rain and it rusted.","Grace,Shannon,Makayla,Claire,Kristen,Lindsey","Again, like the colors & abstractness.,29,180,20","I think that this picture has nice colors and its pleasing to the eyes.,20,220,20","Nothing whatsoever,2,80,20","the colors are nice,8,260,20","river, fall, cozy, warm,12,280,20","Not a fan of the colors. Makes me think of the Australian bush fires.,-5,400,20","Makayla","Nothing whatsoever,2,80,20","Lindsey","Not a fan of the colors. Makes me think of the Australian bush fires.,-5,400,20","Kristen","river, fall, cozy, warm,12,280,20","2"
"71498","","survey-text","182","1924924","0.0-180.0-0.0","API7K4R8MF7VD","","","","{""Q0"":""Patchwork quilt my Granmum would make all the new babies. ""}","","","","","","","","","","","","","","","","","","","","","","",""
"2296","","image-slider-response","183","1927222","0.0-181.0","API7K4R8MF7VD","","","","","37","","","","","","","","","","","","","","","","","","","","","",""
"null","","image-button-response","184","1932224","0.0-182.0","API7K4R8MF7VD","img_art/12.jpg","null","","","","","","","","","","","","","","","","","","","","","","","","",""
"3190","","image-button-response","185","1935416","0.0-183.0","API7K4R8MF7VD","img_art/12.jpg","0","","","","","","","","","","","","","","","","","","","","","","","","",""
"3846","","image-button-response","186","1939264","0.0-184.0-0.0","API7K4R8MF7VD","img_art/12.jpg","1","","","","","","","","","","","","","","","","","","","","","","","","",""
"2148","","image-button-response","187","1941414","0.0-185.0-0.0","API7K4R8MF7VD","img_art/12.jpg","3","","","","","","","","","","","","","","","","","","","","","","","","",""
"null","","html-keyboard-response","188","1942915","0.0-186.0","API7K4R8MF7VD","<p style=""font-size: 48px;"">+</p>","","","","","null","allTrialResponses","1500","1","20","img_art/12.jpg","37","Patchwork quilt my Granmum would make all the new babies. ","Kaitlyn,Briana,Makayla,Alexandra,Kristen,Lindsey","The shapes present in the picture make it very interesting,17,80,20","Interesting colors. I really dont like modern art though,24,400,20","Reminds me Early 2000's decor, don't favor it,-10,80,20","I like the pattern of this picture, but the colors could be nicer,11,60,20","stressful, upsetting,-10,280,20","Ugly colors and I'm just not too much a fan of cubist abstract art.,-50,400,20","Kaitlyn","The shapes present in the picture make it very interesting,17,80,20","Briana","Interesting colors. I really dont like modern art though,24,400,20","Alexandra","I like the pattern of this picture, but the colors could be nicer,11,60,20","2"
"3306","","survey-text","189","1946229","0.0-187.0-0.0","API7K4R8MF7VD","","","","{""Q0"":""we""}","","","","","","","","","","","","","","","","","","","","","","",""
"23741","","survey-text","190","1969972","0.0-188.0-0.0","API7K4R8MF7VD","","","","{""Q0"":""scribbled pen over paint""}","","","","","","","","","","","","","","","","","","","","","","",""
"3424.4000000059605","","image-slider-response","191","1973398","0.0-189.0","API7K4R8MF7VD","","","","","-50","","","","","","","","","","","","","","","","","","","","","",""
"3086","","image-button-response","192","1978414","0.0-190.0","API7K4R8MF7VD","img_art/27.jpg","3","","","","","","","","","","","","","","","","","","","","","","","","",""
"476","","image-button-response","193","1978892","0.0-191.0","API7K4R8MF7VD","img_art/27.jpg","5","","","","","","","","","","","","","","","","","","","","","","","","",""
"2379","","image-button-response","194","1981272","0.0-192.0-0.0","API7K4R8MF7VD","img_art/27.jpg","1","","","","","","","","","","","","","","","","","","","","","","","","",""
"1718","","image-button-response","195","1982992","0.0-193.0-0.0","API7K4R8MF7VD","img_art/27.jpg","3","","","","","","","","","","","","","","","","","","","","","","","","",""
"null","","html-keyboard-response","196","1983993","0.0-194.0","API7K4R8MF7VD","<p style=""font-size: 48px;"">+</p>","","","","","null","allTrialResponses","1000","1","21","img_art/27.jpg","-50","scribbled pen over paint","Kaitlyn,Briana,Lauren,Alexandra,Brittany,Caitlin","The variation of orange is nice,9,80,20","Unfinished something?,-30,400,20","Not a fan of the green; gives off the impression that someone else drew on it.,-20,340,20","This is ugly and looks like a child did this,-36,60,20","The colors are put together in an interesting way.,-9,40,20","Looks like a child added his own interpretation with a black marker.,-5,80,20","Caitlin","Looks like a child added his own interpretation with a black marker.,-5,80,20","Briana","Unfinished something?,-30,400,20","Alexandra","This is ugly and looks like a child did this,-36,60,20","2"
"22720","","survey-text","197","2006718","0.0-195.0-0.0","API7K4R8MF7VD","","","","{""Q0"":""another impressionist painting I do not understand.""}","","","","","","","","","","","","","","","","","","","","","","",""
"2628","","image-slider-response","198","2009348","0.0-196.0","API7K4R8MF7VD","","","","","-38","","","","","","","","","","","","","","","","","","","","","",""
"null","","image-button-response","199","2014350","0.0-197.0","API7K4R8MF7VD","img_art/28.jpg","null","","","","","","","","","","","","","","","","","","","","","","","","",""
"776","","image-button-response","200","2015128","0.0-198.0","API7K4R8MF7VD","img_art/28.jpg","1","","","","","","","","","","","","","","","","","","","","","","","","",""
"888","","image-button-response","201","2016018","0.0-199.0-0.0","API7K4R8MF7VD","img_art/28.jpg","3","","","","","","","","","","","","","","","","","","","","","","","","",""
"1974","","image-button-response","202","2017994","0.0-200.0-0.0","API7K4R8MF7VD","img_art/28.jpg","5","","","","","","","","","","","","","","","","","","","","","","","","",""
"null","","html-keyboard-response","203","2018996","0.0-201.0","API7K4R8MF7VD","<p style=""font-size: 48px;"">+</p>","","","","","null","allTrialResponses","1000","1","22","img_art/28.jpg","-38","another impressionist painting I do not understand.","Gabrielle,Briana,Cynthia,Alexandra,Cheyenne,Caitlin","bland coloring but pattern interesting,2,160,20","Is this anything?,-20,400,20","nostalgic from a memory,11,320,20","Boring, looks like it belongs in a coffee shop,-20,60,20","Good use of shapes.,7,200,20","Bug meets bug in a dark alley.,-20,80,20","Briana","Is this anything?,-20,400,20","Alexandra","Boring, looks like it belongs in a coffee shop,-20,60,20","Caitlin","Bug meets bug in a dark alley.,-20,80,20","2"
"38501","","survey-text","204","2057504","0.0-202.0-0.0","API7K4R8MF7VD","","","","{""Q0"":""Sunset reflecting in the windows of a town on the coast""}","","","","","","","","","","","","","","","","","","","","","","",""
"1650.2999999970198","","image-slider-response","205","2059156","0.0-203.0","API7K4R8MF7VD","","","","","18","","","","","","","","","","","","","","","","","","","","","",""
"3324","","image-button-response","206","2064158","0.0-204.0","API7K4R8MF7VD","img_art/22.jpg","1","","","","","","","","","","","","","","","","","","","","","","","","",""
"4983","","image-button-response","207","2069144","0.0-205.0","API7K4R8MF7VD","img_art/22.jpg","3","","","","","","","","","","","","","","","","","","","","","","","","",""
"3022","","image-button-response","208","2072168","0.0-206.0-0.0","API7K4R8MF7VD","img_art/22.jpg","1","","","","","","","","","","","","","","","","","","","","","","","","",""
"4892","","image-button-response","209","2077062","0.0-207.0-0.0","API7K4R8MF7VD","img_art/22.jpg","5","","","","","","","","","","","","","","","","","","","","","","","","",""
"null","","html-keyboard-response","210","2078563","0.0-208.0","API7K4R8MF7VD","<p style=""font-size: 48px;"">+</p>","","","","","null","allTrialResponses","1500","1","23","img_art/22.jpg","18","Sunset reflecting in the windows of a town on the coast","Kelsey,Briana,Angelica,Alexandra,Ashley,Caitlin","its messy, like a child painted it,-14,240,20","Bright colors feel warm,22,400,20","It's bland and ugly.,-21,280,20","The colors in this picture are nice.,32,60,20","Another servicable piece of abstract art?,20,320,20","Looks like the kind of art I would see at the doctor's office.,-5,80,20","Alexandra","The colors in this picture are nice.,32,60,20","Briana","Bright colors feel warm,22,400,20","Caitlin","Looks like the kind of art I would see at the doctor's office.,-5,80,20","2"
"72544","","survey-text","211","2151112","0.0-209.0-0.0","API7K4R8MF7VD","","","","{""Q0"":""A person in a graveyard , gives me chills. ""}","","","","","","","","","","","","","","","","","","","","","","",""
"2602.300000011921","","image-slider-response","212","2153716","0.0-210.0","API7K4R8MF7VD","","","","","50","","","","","","","","","","","","","","","","","","","","","",""
"null","","image-button-response","213","2158719","0.0-211.0","API7K4R8MF7VD","img_art/25.jpg","null","","","","","","","","","","","","","","","","","","","","","","","","",""
"3646","","image-button-response","214","2162366","0.0-212.0","API7K4R8MF7VD","img_art/25.jpg","1","","","","","","","","","","","","","","","","","","","","","","","","",""
"986","","image-button-response","215","2163354","0.0-213.0-0.0","API7K4R8MF7VD","img_art/25.jpg","2","","","","","","","","","","","","","","","","","","","","","","","","",""
"3048","","image-button-response","216","2166404","0.0-214.0-0.0","API7K4R8MF7VD","img_art/25.jpg","4","","","","","","","","","","","","","","","","","","","","","","","","",""
"null","","html-keyboard-response","217","2167906","0.0-215.0","API7K4R8MF7VD","<p style=""font-size: 48px;"">+</p>","","","","","null","allTrialResponses","1500","1","24","img_art/25.jpg","50","A person in a graveyard , gives me chills. ","Sara,Briana,Amy,Alexandra,Alexa,Caitlin","Green color is not my thing,-29,160,20","Its scary. It looks like someone overlooking hell,-34,400,20","The limited palette make this figure mysterious and interpret-able.,20,220,20","This is too dark and creepy. I also hate the color,-30,60,20","It's really neat and cool looking,20,40,20","Wish I was that thin.,-5,80,20","Briana","Its scary. It looks like someone overlooking hell,-34,400,20","Amy","The limited palette make this figure mysterious and interpret-able.,20,220,20","Alexa","It's really neat and cool looking,20,40,20","2"
"12614","","survey-text","218","2180524","0.0-216.0-0.0","API7K4R8MF7VD","","","","{""Q0"":""ITS GONNA EAT ME!!! ""}","","","","","","","","","","","","","","","","","","","","","","",""
"2374.0999999940395","","image-slider-response","219","2182900","0.0-217.0","API7K4R8MF7VD","","","","","-48","","","","","","","","","","","","","","","","","","","","","",""
"null","","image-button-response","220","2187902","0.0-218.0","API7K4R8MF7VD","img_art/23.jpg","null","","","","","","","","","","","","","","","","","","","","","","","","",""
"10336","","image-button-response","221","2198240","0.0-219.0","API7K4R8MF7VD","img_art/23.jpg","3","","","","","","","","","","","","","","","","","","","","","","","","",""
"1646","","image-button-response","222","2199888","0.0-220.0-0.0","API7K4R8MF7VD","img_art/23.jpg","5","","","","","","","","","","","","","","","","","","","","","","","","",""
"3744","","image-button-response","223","2203634","0.0-221.0-0.0","API7K4R8MF7VD","img_art/23.jpg","1","","","","","","","","","","","","","","","","","","","","","","","","",""
"null","","html-keyboard-response","224","2204136","0.0-222.0","API7K4R8MF7VD","<p style=""font-size: 48px;"">+</p>","","","","","null","allTrialResponses","500","1","25","img_art/23.jpg","-48","ITS GONNA EAT ME!!! ","Mackenzie,Briana,Amy,Margaret,Alexa,Andrea","The usage of color is great, but not my style.,-15,20,20","White in the middle look like people dancing naked,19,400,20","So exciting and full of the night.,20,220,20","white reminds me of screamo music band tshirts when they have their name in the unreadable lettering,-9,100,20","Very colorful and wild. It's cool and I like it,32,40,20","I see souls in torment and that makes me feel uneasy.,-21,240,20","Margaret","white reminds me of screamo music band tshirts when they have their name in the unreadable lettering,-9,100,20","Andrea","I see souls in torment and that makes me feel uneasy.,-21,240,20","Briana","White in the middle look like people dancing naked,19,400,20","2"
"5143","","survey-text","225","2209288","0.0-223.0-0.0","API7K4R8MF7VD","","","","{""Q0"":""table""}","","","","","","","","","","","","","","","","","","","","","","",""
"68385","","survey-text","226","2277674","0.0-224.0-0.0","API7K4R8MF7VD","","","","{""Q0"":""I see many things happening in this, a horse with a rainbow main in the sky.""}","","","","","","","","","","","","","","","","","","","","","","",""
"2477.2999999970198","","image-slider-response","227","2280154","0.0-225.0","API7K4R8MF7VD","","","","","50","","","","","","","","","","","","","","","","","","","","","",""
"null","","image-button-response","228","2285167","0.0-226.0","API7K4R8MF7VD","img_art/17.jpg","null","","","","","","","","","","","","","","","","","","","","","","","","",""
"2047","","image-button-response","229","2287216","0.0-227.0","API7K4R8MF7VD","img_art/17.jpg","2","","","","","","","","","","","","","","","","","","","","","","","","",""
"1307","","image-button-response","230","2288524","0.0-228.0-0.0","API7K4R8MF7VD","img_art/17.jpg","0","","","","","","","","","","","","","","","","","","","","","","","","",""
"7289","","image-button-response","231","2295814","0.0-229.0-0.0","API7K4R8MF7VD","img_art/17.jpg","3","","","","","","","","","","","","","","","","","","","","","","","","",""
"null","","html-keyboard-response","232","2297316","0.0-230.0","API7K4R8MF7VD","<p style=""font-size: 48px;"">+</p>","","","","","null","allTrialResponses","1500","1","26","img_art/17.jpg","50","I see many things happening in this, a horse with a rainbow main in the sky.","Autumn,Briana,Alyssa,Margaret,Jessica,Andrea","Looks awesome .,33,340,20","It looks unfinished,-7,400,20","It gorgeous and i love how the tree is almost 3 dimensional.So many elements to it.,50,160,20","gentle watercolor vibes,12,100,20","The way they painted the trees is so cool.,27,400,20","A coming storm but I think I would appreciate it more with more contrast.,-12,240,20","Alyssa","It gorgeous and i love how the tree is almost 3 dimensional.So many elements to it.,50,160,20","Autumn","Looks awesome .,33,340,20","Margaret","gentle watercolor vibes,12,100,20","2"
"45914","","survey-text","233","2343235","0.0-231.0-0.0","API7K4R8MF7VD","","","","{""Q0"":""A swarm of bugs  eating the flowers in the garden i hate it.""}","","","","","","","","","","","","","","","","","","","","","","",""
"3114","","image-slider-response","234","2346351","0.0-232.0","API7K4R8MF7VD","","","","","-50","","","","","","","","","","","","","","","","","","","","","",""
"null","","image-button-response","235","2351353","0.0-233.0","API7K4R8MF7VD","img_art/15.jpg","null","","","","","","","","","","","","","","","","","","","","","","","","",""
"2059","","image-button-response","236","2353413","0.0-234.0","API7K4R8MF7VD","img_art/15.jpg","2","","","","","","","","","","","","","","","","","","","","","","","","",""
"867","","image-button-response","237","2354281","0.0-235.0-0.0","API7K4R8MF7VD","img_art/15.jpg","4","","","","","","","","","","","","","","","","","","","","","","","","",""
"3824","","image-button-response","238","2358107","0.0-236.0-0.0","API7K4R8MF7VD","img_art/15.jpg","0","","","","","","","","","","","","","","","","","","","","","","","","",""
"null","","html-keyboard-response","239","2358609","0.0-237.0","API7K4R8MF7VD","<p style=""font-size: 48px;"">+</p>","","","","","null","allTrialResponses","500","1","27","img_art/15.jpg","-50","A swarm of bugs  eating the flowers in the garden i hate it.","Autumn,Sarah,Alyssa,Margaret,Kylie,Sophia","Simple but not good,-34,340,20","this is really pretty! i like the pops of blue in all the black,26,180,20","Uninteresting and too much black,-30,160,20","i like the pop of blue within all the black,8,100,20","I don't know how I feel about this,31,300,20","I feel like there's ski jumping going on here.,2,280,20","Alyssa","Uninteresting and too much black,-30,160,20","Kylie","I don't know how I feel about this,31,300,20","Autumn","Simple but not good,-34,340,20","2"
"48313","","survey-text","240","2406927","0.0-238.0-0.0","API7K4R8MF7VD","","","","{""Q0"":""I feel like this is in a Italian bistro in Venice and now I want Espresso. ""}","","","","","","","","","","","","","","","","","","","","","","",""
"3136.2999999970198","","image-slider-response","241","2410065","0.0-239.0","API7K4R8MF7VD","","","","","50","","","","","","","","","","","","","","","","","","","","","",""
"null","","image-button-response","242","2415073","0.0-240.0","API7K4R8MF7VD","img_art/19.jpg","null","","","","","","","","","","","","","","","","","","","","","","","","",""
"591","","image-button-response","243","2415665","0.0-241.0","API7K4R8MF7VD","img_art/19.jpg","4","","","","","","","","","","","","","","","","","","","","","","","","",""
"5745","","image-button-response","244","2421411","0.0-242.0-0.0","API7K4R8MF7VD","img_art/19.jpg","3","","","","","","","","","","","","","","","","","","","","","","","","",""
"9601","","image-button-response","245","2431015","0.0-243.0-0.0","API7K4R8MF7VD","img_art/19.jpg","0","","","","","","","","","","","","","","","","","","","","","","","","",""
"null","","html-keyboard-response","246","2432517","0.0-244.0","API7K4R8MF7VD","<p style=""font-size: 48px;"">+</p>","","","","","null","allTrialResponses","1500","1","28","img_art/19.jpg","50","I feel like this is in a Italian bistro in Venice and now I want Espresso. ","Autumn,Hannah,Alyssa,Rebecca,Kylie,Gabriela","Messy and kid like.,-36,340,20","Just don't like this one.,-9,240,20","There's alot of elements to it bordering on clutter and chaotic,-20,160,20","interesting take on depth (reminds me of those 1000 piece puzzles),2,100,20","Reminds me of a quaint little town I once visited in Italy,50,300,20","it looks messy and non-unique.,-9,140,20","Kylie","Reminds me of a quaint little town I once visited in Italy,50,300,20","Rebecca","interesting take on depth (reminds me of those 1000 piece puzzles),2,100,20","Autumn","Messy and kid like.,-36,340,20","2"
"66733","","survey-text","247","2499256","0.0-245.0-0.0","API7K4R8MF7VD","","","","{""Q0"":""This made me gasp a bit, the rider in battle sword drawn slaying the enemy.""}","","","","","","","","","","","","","","","","","","","","","","",""
"2814.4000000059605","","image-slider-response","248","2502072","0.0-246.0","API7K4R8MF7VD","","","","","50","","","","","","","","","","","","","","","","","","","","","",""
"null","","image-button-response","249","2507073","0.0-247.0","API7K4R8MF7VD","img_art/18.jpg","null","","","","","","","","","","","","","","","","","","","","","","","","",""
"555","","image-button-response","250","2507630","0.0-248.0","API7K4R8MF7VD","img_art/18.jpg","0","","","","","","","","","","","","","","","","","","","","","","","","",""
"7076","","image-button-response","251","2514708","0.0-249.0-0.0","API7K4R8MF7VD","img_art/18.jpg","5","","","","","","","","","","","","","","","","","","","","","","","","",""
"4550","","image-button-response","252","2519260","0.0-250.0-0.0","API7K4R8MF7VD","img_art/18.jpg","3","","","","","","","","","","","","","","","","","","","","","","","","",""
"null","","html-keyboard-response","253","2519761","0.0-251.0","API7K4R8MF7VD","<p style=""font-size: 48px;"">+</p>","","","","","null","allTrialResponses","500","1","29","img_art/18.jpg","50","This made me gasp a bit, the rider in battle sword drawn slaying the enemy.","Autumn,Katie,Emily,Rebecca,Kylie,Allison","This looks amazing.,40,340,20","Looks messy. Reminds me of a battle or war. I have an unpleasant feeling the more I look.,-20,160,20","Not my style but I can see some serious skill went int it.,21,40,20","reminds me of the little prince, with the color scheme and all,16,100,20","Kind of weird in a confusing way,10,300,20","Colors are okay. Reminds me of cavalry.,10,140,20","Autumn","This looks amazing.,40,340,20","Allison","Colors are okay. Reminds me of cavalry.,10,140,20","Rebecca","reminds me of the little prince, with the color scheme and all,16,100,20","2"
"48174","","survey-text","254","2567941","0.0-252.0-0.0","API7K4R8MF7VD","","","","{""Q0"":""looks like something a student did for art class. ""}","","","","","","","","","","","","","","","","","","","","","","",""
"3390.300000011921","","image-slider-response","255","2571333","0.0-253.0","API7K4R8MF7VD","","","","","-36","","","","","","","","","","","","","","","","","","","","","",""
"null","","image-button-response","256","2576335","0.0-254.0","API7K4R8MF7VD","img_art/29.jpg","null","","","","","","","","","","","","","","","","","","","","","","","","",""
"2833","","image-button-response","257","2579169","0.0-255.0","API7K4R8MF7VD","img_art/29.jpg","1","","","","","","","","","","","","","","","","","","","","","","","","",""
"7010","","image-button-response","258","2586181","0.0-256.0-0.0","API7K4R8MF7VD","img_art/29.jpg","0","","","","","","","","","","","","","","","","","","","","","","","","",""
"972","","image-button-response","259","2587155","0.0-257.0-0.0","API7K4R8MF7VD","img_art/29.jpg","4","","","","","","","","","","","","","","","","","","","","","","","","",""
"null","","html-keyboard-response","260","2588657","0.0-258.0","API7K4R8MF7VD","<p style=""font-size: 48px;"">+</p>","","","","","null","allTrialResponses","1500","1","30","img_art/29.jpg","-36","looks like something a student did for art class. ","Autumn,Mariah,Kaylee,Rebecca,Madison,Allison","It's too messy.,-25,340,20","It feels like looking through layers of frustration.,19,140,20","it looks like a prison,-33,200,20","love the texture, i don't know, i just really like it (and the paintbrush adds a nice touch),44,100,20","Well if the artist themself is crossing it out, why should I pay any mind?,-30,60,20","Flash is too strong. Dislike the colors,-5,140,20","Mariah","It feels like looking through layers of frustration.,19,140,20","Autumn","It's too messy.,-25,340,20","Madison","Well if the artist themself is crossing it out, why should I pay any mind?,-30,60,20","2"
"2620","","image-button-response_instructions","261","2591287","0.0-259.0","API7K4R8MF7VD","","0","instructions","","","","","","","","","","","","","","","","","","","","","","","",""
"1158","","image-button-response","262","2592451","0.0-260.0","API7K4R8MF7VD","","0","","","","","","","","","","","","","","","","","","","","","","","","",""
