"rt","url","trial_type","trial_index","time_elapsed","internal_node_id","participant_id","stimulus","button_pressed","Name","responses","response","key_press","variableName","fixationTime","condition","trial","photo","subjectRating","subjectResponse","agentsNames","agent_1_Response","agent_2_Response","agent_3_Response","agent_4_Response","agent_5_Response","agent_6_Response","kept_1_name","kept_1_response","kept_2_name","kept_2_response","kept_3_name","kept_3_response","errorCounter"
"21310","external_page_harvard.html","external-html","0","21389","0.0-0.0","AQKC1VIZAZ6VI","","","","","","","","","","","","","","","","","","","","","","","","","","",""
"1519","","image-button-response","1","22909","0.0-1.0","AQKC1VIZAZ6VI","","0","","","","","","","","","","","","","","","","","","","","","","","","",""
"2518","","image-button-response","2","25429","0.0-2.0-0.0","AQKC1VIZAZ6VI","","1","phone","","","","","","","","","","","","","","","","","","","","","","","",""
"14858","","survey-text","3","40289","0.0-3.0-0.0","AQKC1VIZAZ6VI","","","","{""Q0"":""AQKC1VIZAZ6VI""}","","","","","","","","","","","","","","","","","","","","","","",""
"7828","","image-button-response_instructions","4","48119","0.0-4.0","AQKC1VIZAZ6VI","","0","instructions","","","","","","","","","","","","","","","","","","","","","","","",""
"61919","","image-button-response_instructions","5","110038","0.0-5.0","AQKC1VIZAZ6VI","img_art/ins/popularity/ins1.png","0","instructions","","","","","","","","","","","","","","","","","","","","","","","",""
"11189","","image-button-response_instructions","6","121228","0.0-6.0","AQKC1VIZAZ6VI","img_art/ins/popularity/ins2.png","0","instructions","","","","","","","","","","","","","","","","","","","","","","","",""
"5943","","image-button-response_instructions","7","127172","0.0-7.0","AQKC1VIZAZ6VI","img_art/ins/popularity/ins2Extreme.png","0","instructions","","","","","","","","","","","","","","","","","","","","","","","",""
"19450","","image-button-response_instructions","8","146624","0.0-8.0","AQKC1VIZAZ6VI","img_art/ins/popularity/ins3KEEPpop.PNG","0","instructions","","","","","","","","","","","","","","","","","","","","","","","",""
"2437","","image-button-response_instructions","9","149061","0.0-9.0","AQKC1VIZAZ6VI","img_art/ins/popularity/ins3ANamepop.PNG","0","instructions","","","","","","","","","","","","","","","","","","","","","","","",""
"3265","","image-button-response_instructions","10","152328","0.0-10.0","AQKC1VIZAZ6VI","img_art/ins/popularity/ins3ARatingpop.png","0","instructions","","","","","","","","","","","","","","","","","","","","","","","",""
"3212","","image-button-response_instructions","11","155540","0.0-11.0","AQKC1VIZAZ6VI","img_art/ins/popularity/ins3ATextpop.png","0","instructions","","","","","","","","","","","","","","","","","","","","","","","",""
"6234","","image-button-response_instructions","12","161775","0.0-12.0","AQKC1VIZAZ6VI","img_art/ins/popularity/ins3ALikespop.png","0","instructions","","","","","","","","","","","","","","","","","","","","","","","",""
"7119","","image-button-response_instructions","13","168894","0.0-13.0","AQKC1VIZAZ6VI","img_art/ins/popularity/ins3KEEPpop.PNG","0","instructions","","","","","","","","","","","","","","","","","","","","","","","",""
"7965","","image-button-response_instructions","14","176860","0.0-14.0","AQKC1VIZAZ6VI","img_art/ins/popularity/ins3_5RED.png","0","instructions","","","","","","","","","","","","","","","","","","","","","","","",""
"2549","","image-button-response_instructions","15","179410","0.0-15.0","AQKC1VIZAZ6VI","img_art/ins/popularity/ins3KEEPpop.PNG","0","instructions","","","","","","","","","","","","","","","","","","","","","","","",""
"4746","","image-button-response_instructions","16","184158","0.0-16.0","AQKC1VIZAZ6VI","img_art/ins/popularity/ins4KEEPpop.PNG","0","instructions","","","","","","","","","","","","","","","","","","","","","","","",""
"2196","","image-button-response_instructions","17","186355","0.0-17.0","AQKC1VIZAZ6VI","img_art/ins/popularity/ins5KEEPpop.PNG","0","instructions","","","","","","","","","","","","","","","","","","","","","","","",""
"1570","","image-button-response_instructions","18","187925","0.0-18.0","AQKC1VIZAZ6VI","","0","instructions","","","","","","","","","","","","","","","","","","","","","","","",""
"6627","","survey-text","19","194568","0.0-19.0-0.0","AQKC1VIZAZ6VI","","","","{""Q0"":""but""}","","","","","","","","","","","","","","","","","","","","","","",""
"36083","","survey-text","20","230653","0.0-20.0-0.0","AQKC1VIZAZ6VI","","","","{""Q0"":""looks like an abstract of a field full of flowers""}","","","","","","","","","","","","","","","","","","","","","","",""
"4216.5","","image-slider-response","21","234871","0.0-21.0","AQKC1VIZAZ6VI","","","","","12","","","","","","","","","","","","","","","","","","","","","",""
"null","","image-button-response","22","239879","0.0-22.0","AQKC1VIZAZ6VI","img_art/ins/1.jpg","null","","","","","","","","","","","","","","","","","","","","","","","","",""
"744","","image-button-response","23","240625","0.0-23.0","AQKC1VIZAZ6VI","img_art/ins/1.jpg","5","","","","","","","","","","","","","","","","","","","","","","","","",""
"2611","","image-button-response","24","243238","0.0-24.0-0.0","AQKC1VIZAZ6VI","img_art/ins/1.jpg","3","","","","","","","","","","","","","","","","","","","","","","","","",""
"1378","","image-button-response","25","244618","0.0-25.0-0.0","AQKC1VIZAZ6VI","img_art/ins/1.jpg","1","","","","","","","","","","","","","","","","","","","","","","","","",""
"null","","html-keyboard-response","26","245133","0.0-26.0","AQKC1VIZAZ6VI","<p style=""font-size: 48px;"">+</p>","","","","","null","allTrialResponses","500","1","-2","img_art/ins/1.jpg","12","looks like an abstract of a field full of flowers","Adam,Alex,Ben,Carl,Daniel,Jack","Seems like doodles,-20,20,20","very creative work.,36,40,20","This color reminds me of poo,-46,60,20","very calming artwork,42,80,20","It looks like a murder scene.,-48,100,20","I like the sophisticated brushwork,40,120,20","Jack","I like the sophisticated brushwork,40,120,20","Carl","very calming artwork,42,80,20","Alex","very creative work.,36,40,20","0"
"29962","","survey-text","27","275098","0.0-27.0-0.0","AQKC1VIZAZ6VI","","","","{""Q0"":""reminds me of something industrial like a furnace""}","","","","","","","","","","","","","","","","","","","","","","",""
"4379.199999928474","","image-slider-response","28","279480","0.0-28.0","AQKC1VIZAZ6VI","","","","","25","","","","","","","","","","","","","","","","","","","","","",""
"4077","","image-button-response","29","284483","0.0-29.0","AQKC1VIZAZ6VI","img_art/ins/2.jpg","5","","","","","","","","","","","","","","","","","","","","","","","","",""
"637","","image-button-response","30","285122","0.0-30.0","AQKC1VIZAZ6VI","img_art/ins/2.jpg","5","","","","","","","","","","","","","","","","","","","","","","","","",""
"414","","image-button-response","31","285538","0.0-31.0-0.0","AQKC1VIZAZ6VI","img_art/ins/2.jpg","4","","","","","","","","","","","","","","","","","","","","","","","","",""
"752","","image-button-response","32","286292","0.0-32.0-0.0","AQKC1VIZAZ6VI","img_art/ins/2.jpg","3","","","","","","","","","","","","","","","","","","","","","","","","",""
"null","","html-keyboard-response","33","286804","0.0-33.0","AQKC1VIZAZ6VI","<p style=""font-size: 48px;"">+</p>","","","","","null","allTrialResponses","500","1","-1","img_art/ins/2.jpg","25","reminds me of something industrial like a furnace","James,Alex,Kyle,Carl,John,Jack","looks too angry,-50,140,20","I like the blocks of color arrangements,30,40,20","Idk, it is just annoying,-32,180,20","I can feel the artist's passion in it,45,80,20","love the texture of paint,48,160,20","I would never be able to compose a sophisticated pallete like this,48,120,20","Jack","I would never be able to compose a sophisticated pallete like this,48,120,20","John","love the texture of paint,48,160,20","Carl","I can feel the artist's passion in it,45,80,20","0"
"15622","","survey-text","34","302429","0.0-34.0-0.0","AQKC1VIZAZ6VI","","","","{""Q0"":""melting glaciers""}","","","","","","","","","","","","","","","","","","","","","","",""
"4076.0999999046326","","image-slider-response","35","306507","0.0-35.0","AQKC1VIZAZ6VI","","","","","37","","","","","","","","","","","","","","","","","","","","","",""
"null","","image-button-response","36","311511","0.0-36.0","AQKC1VIZAZ6VI","img_art/ins/3.jpg","null","","","","","","","","","","","","","","","","","","","","","","","","",""
"1531","","image-button-response","37","313043","0.0-37.0","AQKC1VIZAZ6VI","img_art/ins/3.jpg","4","","","","","","","","","","","","","","","","","","","","","","","","",""
"555","","image-button-response","38","313599","0.0-38.0-0.0","AQKC1VIZAZ6VI","img_art/ins/3.jpg","5","","","","","","","","","","","","","","","","","","","","","","","","",""
"1710","","image-button-response","39","315311","0.0-39.0-0.0","AQKC1VIZAZ6VI","img_art/ins/3.jpg","0","","","","","","","","","","","","","","","","","","","","","","","","",""
"null","","html-keyboard-response","40","316328","0.0-40.0","AQKC1VIZAZ6VI","<p style=""font-size: 48px;"">+</p>","","","","","null","allTrialResponses","1000","1","0","img_art/ins/3.jpg","37","melting glaciers","Mike,Sam,Ron,Carl,John,Jack","enjoy the different shades of blue,22,200,20","I can feel a rainy day from this painting,18,240,20","It looks depressing,-26,220,20","It's an alright work,15,80,20","I like the overlapping of brushes,41,160,20","I feel connected to the artist,40,120,20","John","I like the overlapping of brushes,41,160,20","Jack","I feel connected to the artist,40,120,20","Mike","enjoy the different shades of blue,22,200,20","0"
"126610","","image-button-response_instructions","41","442942","0.0-41.0","AQKC1VIZAZ6VI","","0","instructions","","","","","","","","","","","","","","","","","","","","","","","",""
"9117","","survey-likert","42","452062","0.0-42.0-0.0","AQKC1VIZAZ6VI","","","","{""Q0"":"""",""Q1"":0,""Q2"":1}","","","","","","","","","","","","","","","","","","","","","","",""
"5200","","survey-text","43","457266","0.0-43.0-0.0","AQKC1VIZAZ6VI","","","","{""Q0"":""rock""}","","","","","","","","","","","","","","","","","","","","","","",""
"15498","","survey-text","44","472765","0.0-44.0-0.0","AQKC1VIZAZ6VI","","","","{""Q0"":""looks like a nightmare""}","","","","","","","","","","","","","","","","","","","","","","",""
"4434.600000023842","","image-slider-response","45","477201","0.0-45.0","AQKC1VIZAZ6VI","","","","","-29","","","","","","","","","","","","","","","","","","","","","",""
"null","","image-button-response","46","482221","0.0-46.0","AQKC1VIZAZ6VI","img_art/16.jpg","null","","","","","","","","","","","","","","","","","","","","","","","","",""
"929","","image-button-response","47","483153","0.0-47.0","AQKC1VIZAZ6VI","img_art/16.jpg","3","","","","","","","","","","","","","","","","","","","","","","","","",""
"2317","","image-button-response","48","485470","0.0-48.0-0.0","AQKC1VIZAZ6VI","img_art/16.jpg","1","","","","","","","","","","","","","","","","","","","","","","","","",""
"1088","","image-button-response","49","486560","0.0-49.0-0.0","AQKC1VIZAZ6VI","img_art/16.jpg","5","","","","","","","","","","","","","","","","","","","","","","","","",""
"null","","html-keyboard-response","50","488066","0.0-50.0","AQKC1VIZAZ6VI","<p style=""font-size: 48px;"">+</p>","","","","","null","allTrialResponses","1500","1","1","img_art/16.jpg","-29","looks like a nightmare","Mark,Alexander,Brendan,Tyler,Isaac,Edward","I think it's about child abuse. The teddy bear represents innocence and the dark shape is approaching it.,40,80,20","Strange and bleak.,-20,120,20","cool teddy bear,50,340,20","Pop art, Tate Modern horse dung.,-50,320,20","I wouldn't hang it up on my wall but I like the colors of the bear.,25,280,20","It feels lazily done,-9,60,20","Tyler","Pop art, Tate Modern horse dung.,-50,320,20","Alexander","Strange and bleak.,-20,120,20","Edward","It feels lazily done,-9,60,20","0"
"11294","","survey-text","51","499364","0.0-51.0-0.0","AQKC1VIZAZ6VI","","","","{""Q0"":""Bob Ross?""}","","","","","","","","","","","","","","","","","","","","","","",""
"4096.799999952316","","image-slider-response","52","503462","0.0-52.0","AQKC1VIZAZ6VI","","","","","39","","","","","","","","","","","","","","","","","","","","","",""
"null","","image-button-response","53","508471","0.0-53.0","AQKC1VIZAZ6VI","img_art/24.jpg","null","","","","","","","","","","","","","","","","","","","","","","","","",""
"1017","","image-button-response","54","509489","0.0-54.0","AQKC1VIZAZ6VI","img_art/24.jpg","0","","","","","","","","","","","","","","","","","","","","","","","","",""
"1612","","image-button-response","55","511103","0.0-55.0-0.0","AQKC1VIZAZ6VI","img_art/24.jpg","4","","","","","","","","","","","","","","","","","","","","","","","","",""
"617","","image-button-response","56","511722","0.0-56.0-0.0","AQKC1VIZAZ6VI","img_art/24.jpg","5","","","","","","","","","","","","","","","","","","","","","","","","",""
"null","","html-keyboard-response","57","513233","0.0-57.0","AQKC1VIZAZ6VI","<p style=""font-size: 48px;"">+</p>","","","","","null","allTrialResponses","1500","1","2","img_art/24.jpg","39","Bob Ross?","Dalton,Alexander,Miguel,Tyler,Marcus,Edward","i feel peace and wanting. i love waterfalls,50,300,20","Water through the fruit.,15,120,20","Very cute amateur piece.,18,160,20","Exceedingly garish,-19,320,20","Love the colors in this work, and the sense of motion in the water,36,60,20","Very pretty and soft,37,60,20","Dalton","i feel peace and wanting. i love waterfalls,50,300,20","Marcus","Love the colors in this work, and the sense of motion in the water,36,60,20","Edward","Very pretty and soft,37,60,20","0"
"16194","","survey-text","58","529432","0.0-58.0-0.0","AQKC1VIZAZ6VI","","","","{""Q0"":""the view from a cafe in Paris""}","","","","","","","","","","","","","","","","","","","","","","",""
"2857.600000023842","","image-slider-response","59","532291","0.0-59.0","AQKC1VIZAZ6VI","","","","","24","","","","","","","","","","","","","","","","","","","","","",""
"null","","image-button-response","60","537304","0.0-60.0","AQKC1VIZAZ6VI","img_art/26.jpg","null","","","","","","","","","","","","","","","","","","","","","","","","",""
"894","","image-button-response","61","538200","0.0-61.0","AQKC1VIZAZ6VI","img_art/26.jpg","1","","","","","","","","","","","","","","","","","","","","","","","","",""
"477","","image-button-response","62","538678","0.0-62.0-0.0","AQKC1VIZAZ6VI","img_art/26.jpg","2","","","","","","","","","","","","","","","","","","","","","","","","",""
"844","","image-button-response","63","539524","0.0-63.0-0.0","AQKC1VIZAZ6VI","img_art/26.jpg","5","","","","","","","","","","","","","","","","","","","","","","","","",""
"null","","html-keyboard-response","64","540026","0.0-64.0","AQKC1VIZAZ6VI","<p style=""font-size: 48px;"">+</p>","","","","","null","allTrialResponses","500","1","3","img_art/26.jpg","24","the view from a cafe in Paris","Dalton,Garrett,Mason,Bryan,Marcus,Edward","neighborhood and trees. i wonder if this is water paint.,1,300,20","I like that it looks like an actual picture and isn't just random colors.,25,180,20","I like the simple watercolor colors, makes my mind work, thumbs up.,27,100,20","Like the muted colors & the scene which seems to be serene.,14,400,20","Nice, but not very interesting. I do like the blue tree though.,6,60,20","Elevator art but the watercolors are good,29,60,20","Garrett","I like that it looks like an actual picture and isn't just random colors.,25,180,20","Mason","I like the simple watercolor colors, makes my mind work, thumbs up.,27,100,20","Edward","Elevator art but the watercolors are good,29,60,20","0"
"30007","","survey-text","65","570037","0.0-65.0-0.0","AQKC1VIZAZ6VI","","","","{""Q0"":""simple but powerful""}","","","","","","","","","","","","","","","","","","","","","","",""
"4434.400000095367","","image-slider-response","66","574474","0.0-66.0","AQKC1VIZAZ6VI","","","","","25","","","","","","","","","","","","","","","","","","","","","",""
"null","","image-button-response","67","579476","0.0-67.0","AQKC1VIZAZ6VI","img_art/6.jpg","null","","","","","","","","","","","","","","","","","","","","","","","","",""
"673","","image-button-response","68","580150","0.0-68.0","AQKC1VIZAZ6VI","img_art/6.jpg","3","","","","","","","","","","","","","","","","","","","","","","","","",""
"463","","image-button-response","69","580616","0.0-69.0-0.0","AQKC1VIZAZ6VI","img_art/6.jpg","4","","","","","","","","","","","","","","","","","","","","","","","","",""
"652","","image-button-response","70","581270","0.0-70.0-0.0","AQKC1VIZAZ6VI","img_art/6.jpg","5","","","","","","","","","","","","","","","","","","","","","","","","",""
"null","","html-keyboard-response","71","582785","0.0-71.0","AQKC1VIZAZ6VI","<p style=""font-size: 48px;"">+</p>","","","","","null","allTrialResponses","1500","1","4","img_art/6.jpg","25","simple but powerful","Ryan,Garrett,Mason,Jose,Evan,Edward","Makes me feel lonely,-22,380,20","I can't tell what this image is, but it's boring because of lack of color variety and nothing in it,-41,180,20","kids book cover, uninteresting.,-10,100,20","This could be so many different things. I saw a bird first but then it looks like a needle going into skin,34,200,20","I am intrigued but unsure whether I enjoy this or not,6,140,20","It looks like a bird looking away,32,60,20","Jose","This could be so many different things. I saw a bird first but then it looks like a needle going into skin,34,200,20","Evan","I am intrigued but unsure whether I enjoy this or not,6,140,20","Edward","It looks like a bird looking away,32,60,20","0"
"18492","","survey-text","72","601282","0.0-72.0-0.0","AQKC1VIZAZ6VI","","","","{""Q0"":""the cliffs of Dover""}","","","","","","","","","","","","","","","","","","","","","","",""
"3238.100000023842","","image-slider-response","73","604521","0.0-73.0","AQKC1VIZAZ6VI","","","","","6","","","","","","","","","","","","","","","","","","","","","",""
"null","","image-button-response","74","609538","0.0-74.0","AQKC1VIZAZ6VI","img_art/21.jpg","null","","","","","","","","","","","","","","","","","","","","","","","","",""
"4230","","image-button-response","75","613769","0.0-75.0","AQKC1VIZAZ6VI","img_art/21.jpg","3","","","","","","","","","","","","","","","","","","","","","","","","",""
"956","","image-button-response","76","614726","0.0-76.0-0.0","AQKC1VIZAZ6VI","img_art/21.jpg","5","","","","","","","","","","","","","","","","","","","","","","","","",""
"1542","","image-button-response","77","616270","0.0-77.0-0.0","AQKC1VIZAZ6VI","img_art/21.jpg","0","","","","","","","","","","","","","","","","","","","","","","","","",""
"null","","html-keyboard-response","78","616786","0.0-78.0","AQKC1VIZAZ6VI","<p style=""font-size: 48px;"">+</p>","","","","","null","allTrialResponses","500","1","5","img_art/21.jpg","6","the cliffs of Dover","Jesus,Isaiah,Christian,Jose,Evan,Edward","The shapes and colors are very interesting to look at.,41,100,20","I feel the same serene excitement that I feel watching a sunrise on a beach.,38,300,20","stormy with gold lining,0,140,20","I can't explain why this struck me as absolutely gorgeous. Like the clashing between 2 different worlds,43,200,20","I feel confused,-18,140,20","I love how vague it is but how you can imagine a story anyway, like clouds,45,60,20","Jose","I can't explain why this struck me as absolutely gorgeous. Like the clashing between 2 different worlds,43,200,20","Edward","I love how vague it is but how you can imagine a story anyway, like clouds,45,60,20","Jesus","The shapes and colors are very interesting to look at.,41,100,20","0"
"6549","","survey-text","79","623341","0.0-79.0-0.0","AQKC1VIZAZ6VI","","","","{""Q0"":""sky""}","","","","","","","","","","","","","","","","","","","","","","",""
"28956","","survey-text","80","652298","0.0-80.0-0.0","AQKC1VIZAZ6VI","","","","{""Q0"":""makes me think of springtime in a hammock""}","","","","","","","","","","","","","","","","","","","","","","",""
"5353","","image-slider-response","81","657653","0.0-81.0","AQKC1VIZAZ6VI","","","","","22","","","","","","","","","","","","","","","","","","","","","",""
"null","","image-button-response","82","662654","0.0-82.0","AQKC1VIZAZ6VI","img_art/9.jpg","null","","","","","","","","","","","","","","","","","","","","","","","","",""
"851","","image-button-response","83","663506","0.0-83.0","AQKC1VIZAZ6VI","img_art/9.jpg","1","","","","","","","","","","","","","","","","","","","","","","","","",""
"1436","","image-button-response","84","664944","0.0-84.0-0.0","AQKC1VIZAZ6VI","img_art/9.jpg","5","","","","","","","","","","","","","","","","","","","","","","","","",""
"857","","image-button-response","85","665803","0.0-85.0-0.0","AQKC1VIZAZ6VI","img_art/9.jpg","3","","","","","","","","","","","","","","","","","","","","","","","","",""
"null","","html-keyboard-response","86","666816","0.0-86.0","AQKC1VIZAZ6VI","<p style=""font-size: 48px;"">+</p>","","","","","null","allTrialResponses","1000","1","6","img_art/9.jpg","22","makes me think of springtime in a hammock","Jesus,Jack,Austin,Jose,Patrick,Edward","I enjoy the design, but the colors look waxy,-7,100,20","gorgeous colors, love the little details,42,320,20","Love the uniqueness,21,240,20","Idk what is in the middle but the blurry image makes it seem like the subject is of the painters interest,22,200,20","Spiral patterns are not my thing,-30,280,20","The colors remind me of peacocks,24,60,20","Jack","gorgeous colors, love the little details,42,320,20","Edward","The colors remind me of peacocks,24,60,20","Jose","Idk what is in the middle but the blurry image makes it seem like the subject is of the painters interest,22,200,20","0"
"24594","","survey-text","87","691414","0.0-87.0-0.0","AQKC1VIZAZ6VI","","","","{""Q0"":""just a bunch of spots I could be an artist too""}","","","","","","","","","","","","","","","","","","","","","","",""
"2279.7999999523163","","image-slider-response","88","693696","0.0-88.0","AQKC1VIZAZ6VI","","","","","-27","","","","","","","","","","","","","","","","","","","","","",""
"null","","image-button-response","89","698705","0.0-89.0","AQKC1VIZAZ6VI","img_art/15.jpg","null","","","","","","","","","","","","","","","","","","","","","","","","",""
"2091","","image-button-response","90","700798","0.0-90.0","AQKC1VIZAZ6VI","img_art/15.jpg","2","","","","","","","","","","","","","","","","","","","","","","","","",""
"1020","","image-button-response","91","701819","0.0-91.0-0.0","AQKC1VIZAZ6VI","img_art/15.jpg","3","","","","","","","","","","","","","","","","","","","","","","","","",""
"844","","image-button-response","92","702664","0.0-92.0-0.0","AQKC1VIZAZ6VI","img_art/15.jpg","4","","","","","","","","","","","","","","","","","","","","","","","","",""
"null","","html-keyboard-response","93","703665","0.0-93.0","AQKC1VIZAZ6VI","<p style=""font-size: 48px;"">+</p>","","","","","null","allTrialResponses","1000","1","7","img_art/15.jpg","-27","just a bunch of spots I could be an artist too","William,Jack,Tanner,Jose,Devon,Edward","makes me feel calm,40,380,20","interesting technique. the blue is very pretty,18,320,20","darkness, hatred, fear,-29,180,20","black dots too ant-like,-25,200,20","This one seems a bit frightening,-19,400,20","Reminds me of lilacs,26,60,20","Tanner","darkness, hatred, fear,-29,180,20","Jose","black dots too ant-like,-25,200,20","Devon","This one seems a bit frightening,-19,400,20","0"
"23665","","survey-text","94","727334","0.0-94.0-0.0","AQKC1VIZAZ6VI","","","","{""Q0"":""random colors that mean nothing""}","","","","","","","","","","","","","","","","","","","","","","",""
"4034.6999999284744","","image-slider-response","95","731371","0.0-95.0","AQKC1VIZAZ6VI","","","","","-36","","","","","","","","","","","","","","","","","","","","","",""
"null","","image-button-response","96","736377","0.0-96.0","AQKC1VIZAZ6VI","img_art/30.jpg","null","","","","","","","","","","","","","","","","","","","","","","","","",""
"1707","","image-button-response","97","738086","0.0-97.0","AQKC1VIZAZ6VI","img_art/30.jpg","5","","","","","","","","","","","","","","","","","","","","","","","","",""
"1022","","image-button-response","98","739109","0.0-98.0-0.0","AQKC1VIZAZ6VI","img_art/30.jpg","4","","","","","","","","","","","","","","","","","","","","","","","","",""
"1688","","image-button-response","99","740798","0.0-99.0-0.0","AQKC1VIZAZ6VI","img_art/30.jpg","2","","","","","","","","","","","","","","","","","","","","","","","","",""
"null","","html-keyboard-response","100","742309","0.0-100.0","AQKC1VIZAZ6VI","<p style=""font-size: 48px;"">+</p>","","","","","null","allTrialResponses","1500","1","8","img_art/30.jpg","-36","random colors that mean nothing","Cody,Alexis,Tanner,Jose,Devon,Brandon","Like the design, not a big fan of the colors,20,180,20","I like the strong lines or brush strokes. It looks modern and bold,21,140,20","makes me think of a tunnel filled with graffiti,19,180,20","For some reason I like the red in this one. Maybe it's the style of lines/blurs,46,200,20","the different roads to take in life,10,400,20","Too abstract, looks like something I could paint,-50,320,20","Brandon","Too abstract, looks like something I could paint,-50,320,20","Devon","the different roads to take in life,10,400,20","Tanner","makes me think of a tunnel filled with graffiti,19,180,20","0"
"21877","","survey-text","101","764189","0.0-101.0-0.0","AQKC1VIZAZ6VI","","","","{""Q0"":""looks like a rusting truck in the desert""}","","","","","","","","","","","","","","","","","","","","","","",""
"6340.400000095367","","image-slider-response","102","770531","0.0-102.0","AQKC1VIZAZ6VI","","","","","24","","","","","","","","","","","","","","","","","","","","","",""
"null","","image-button-response","103","775533","0.0-103.0","AQKC1VIZAZ6VI","img_art/20.jpg","null","","","","","","","","","","","","","","","","","","","","","","","","",""
"758","","image-button-response","104","776293","0.0-104.0","AQKC1VIZAZ6VI","img_art/20.jpg","0","","","","","","","","","","","","","","","","","","","","","","","","",""
"554","","image-button-response","105","776849","0.0-105.0-0.0","AQKC1VIZAZ6VI","img_art/20.jpg","1","","","","","","","","","","","","","","","","","","","","","","","","",""
"1351","","image-button-response","106","778202","0.0-106.0-0.0","AQKC1VIZAZ6VI","img_art/20.jpg","5","","","","","","","","","","","","","","","","","","","","","","","","",""
"null","","html-keyboard-response","107","779215","0.0-107.0","AQKC1VIZAZ6VI","<p style=""font-size: 48px;"">+</p>","","","","","null","allTrialResponses","1000","1","9","img_art/20.jpg","24","looks like a rusting truck in the desert","Eric,Stephen,Tanner,Carlos,Devon,Brandon","I love the color choice.,25,100,20","Liked the background,15,140,20","danger, car crash, stressful,-12,180,20","It feels like it ""almost"" several things.,-10,80,20","i can feel the intensity in this,11,400,20","I like the proportion of the car to the desert city, but too abstract for me,15,320,20","Eric","I love the color choice.,25,100,20","Stephen","Liked the background,15,140,20","Brandon","I like the proportion of the car to the desert city, but too abstract for me,15,320,20","0"
"29530","","survey-text","108","808749","0.0-108.0-0.0","AQKC1VIZAZ6VI","","","","{""Q0"":""very busy but not unpleasant""}","","","","","","","","","","","","","","","","","","","","","","",""
"3563.399999976158","","image-slider-response","109","812314","0.0-109.0","AQKC1VIZAZ6VI","","","","","5","","","","","","","","","","","","","","","","","","","","","",""
"null","","image-button-response","110","817316","0.0-110.0","AQKC1VIZAZ6VI","img_art/19.jpg","null","","","","","","","","","","","","","","","","","","","","","","","","",""
"858","","image-button-response","111","818176","0.0-111.0","AQKC1VIZAZ6VI","img_art/19.jpg","0","","","","","","","","","","","","","","","","","","","","","","","","",""
"554","","image-button-response","112","818732","0.0-112.0-0.0","AQKC1VIZAZ6VI","img_art/19.jpg","1","","","","","","","","","","","","","","","","","","","","","","","","",""
"908","","image-button-response","113","819642","0.0-113.0-0.0","AQKC1VIZAZ6VI","img_art/19.jpg","3","","","","","","","","","","","","","","","","","","","","","","","","",""
"null","","html-keyboard-response","114","821150","0.0-114.0","AQKC1VIZAZ6VI","<p style=""font-size: 48px;"">+</p>","","","","","null","allTrialResponses","1500","1","10","img_art/19.jpg","5","very busy but not unpleasant","Eric,Stephen,Michael,Mitchell,Taylor,Brandon","I like the color and the mix of sketches along with paint.,30,100,20","Solid use of colors but wished it looked more realistic.,12,140,20","Loks like an amature did it, Not pleasing.,-45,140,20","Higher power looking down at its creation with a half smile and some hurt.,45,180,20","Looks like a homeless man and this painting should be too.,-5,200,20","Not a fan of the blobbiness,-22,320,20","Eric","I like the color and the mix of sketches along with paint.,30,100,20","Stephen","Solid use of colors but wished it looked more realistic.,12,140,20","Mitchell","Higher power looking down at its creation with a half smile and some hurt.,45,180,20","0"
"7279","","survey-text","115","828434","0.0-115.0-0.0","AQKC1VIZAZ6VI","","","","{""Q0"":""our""}","","","","","","","","","","","","","","","","","","","","","","",""
"17119","","survey-text","116","845554","0.0-116.0-0.0","AQKC1VIZAZ6VI","","","","{""Q0"":""when you spill your McDonalds fries""}","","","","","","","","","","","","","","","","","","","","","","",""
"4000.5","","image-slider-response","117","849556","0.0-117.0","AQKC1VIZAZ6VI","","","","","-22","","","","","","","","","","","","","","","","","","","","","",""
"null","","image-button-response","118","854573","0.0-118.0","AQKC1VIZAZ6VI","img_art/4.jpg","null","","","","","","","","","","","","","","","","","","","","","","","","",""
"2091","","image-button-response","119","856665","0.0-119.0","AQKC1VIZAZ6VI","img_art/4.jpg","4","","","","","","","","","","","","","","","","","","","","","","","","",""
"470","","image-button-response","120","857137","0.0-120.0-0.0","AQKC1VIZAZ6VI","img_art/4.jpg","5","","","","","","","","","","","","","","","","","","","","","","","","",""
"4204","","image-button-response","121","861343","0.0-121.0-0.0","AQKC1VIZAZ6VI","img_art/4.jpg","0","","","","","","","","","","","","","","","","","","","","","","","","",""
"null","","html-keyboard-response","122","862858","0.0-122.0","AQKC1VIZAZ6VI","<p style=""font-size: 48px;"">+</p>","","","","","null","allTrialResponses","1500","1","11","img_art/4.jpg","-22","when you spill your McDonalds fries","Eric,Stephen,Scott,Mitchell,Jason,Joseph","This piece catches my eye, but it's strange to me.,10,100,20","Just doesn't look nice.,-40,140,20","feels free flowing and relaxed,21,20,20","Hearts, family connected. They are standing on a narrow base and could fall to pieces at anytime.,40,180,20","I don't understand this at all,3,20,20","It's okay, I guess. Nothing much either way.,5,220,20","Jason","I don't understand this at all,3,20,20","Joseph","It's okay, I guess. Nothing much either way.,5,220,20","Eric","This piece catches my eye, but it's strange to me.,10,100,20","0"
"19793","","survey-text","123","882655","0.0-123.0-0.0","AQKC1VIZAZ6VI","","","","{""Q0"":""reminds me of Autumn in New England""}","","","","","","","","","","","","","","","","","","","","","","",""
"2091.5","","image-slider-response","124","884749","0.0-124.0","AQKC1VIZAZ6VI","","","","","25","","","","","","","","","","","","","","","","","","","","","",""
"null","","image-button-response","125","890223","0.0-125.0","AQKC1VIZAZ6VI","img_art/27.jpg","null","","","","","","","","","","","","","","","","","","","","","","","","",""
"7148","","image-button-response","126","897372","0.0-126.0","AQKC1VIZAZ6VI","img_art/27.jpg","0","","","","","","","","","","","","","","","","","","","","","","","","",""
"1056","","image-button-response","127","898429","0.0-127.0-0.0","AQKC1VIZAZ6VI","img_art/27.jpg","3","","","","","","","","","","","","","","","","","","","","","","","","",""
"590","","image-button-response","128","899021","0.0-128.0-0.0","AQKC1VIZAZ6VI","img_art/27.jpg","5","","","","","","","","","","","","","","","","","","","","","","","","",""
"null","","html-keyboard-response","129","900526","0.0-129.0","AQKC1VIZAZ6VI","<p style=""font-size: 48px;"">+</p>","","","","","null","allTrialResponses","1500","1","12","img_art/27.jpg","25","reminds me of Autumn in New England","Eric,Benjamin,Kenneth,Jeffrey,Jason,Joseph","This piece reminds me of a summer day.,30,100,20","I like the colors.,6,260,20","The green stick drawings or whatever they are ruin it for me.,-23,300,20","I like the pictures but it is a lot of going on,10,40,20","The variation of orange is nice,9,20,20","Don't know what it is, but I do like it.,10,220,20","Eric","This piece reminds me of a summer day.,30,100,20","Jeffrey","I like the pictures but it is a lot of going on,10,40,20","Joseph","Don't know what it is, but I do like it.,10,220,20","0"
"16283","","survey-text","130","916813","0.0-130.0-0.0","AQKC1VIZAZ6VI","","","","{""Q0"":""meaningless scribbles""}","","","","","","","","","","","","","","","","","","","","","","",""
"3822.8000000715256","","image-slider-response","131","920637","0.0-131.0","AQKC1VIZAZ6VI","","","","","-44","","","","","","","","","","","","","","","","","","","","","",""
"null","","image-button-response","132","925647","0.0-132.0","AQKC1VIZAZ6VI","img_art/3.jpg","null","","","","","","","","","","","","","","","","","","","","","","","","",""
"688","","image-button-response","133","926337","0.0-133.0","AQKC1VIZAZ6VI","img_art/3.jpg","2","","","","","","","","","","","","","","","","","","","","","","","","",""
"1367","","image-button-response","134","927704","0.0-134.0-0.0","AQKC1VIZAZ6VI","img_art/3.jpg","4","","","","","","","","","","","","","","","","","","","","","","","","",""
"1189","","image-button-response","135","928895","0.0-135.0-0.0","AQKC1VIZAZ6VI","img_art/3.jpg","3","","","","","","","","","","","","","","","","","","","","","","","","",""
"null","","html-keyboard-response","136","929900","0.0-136.0","AQKC1VIZAZ6VI","<p style=""font-size: 48px;"">+</p>","","","","","null","allTrialResponses","1000","1","13","img_art/3.jpg","-44","meaningless scribbles","Eric,Charles,Ian,Jeffrey,Jacob,Joseph","This piece makes me think it has a backstory or a reason which I like.,5,100,20","I like that it feels kind of simple but still chaotic,6,100,20","It just makes me think of blood splattered everywhere.,-31,260,20","Associates with blood and crime scene,-12,40,20","Don't get the scribbles.,-13,340,20","Really have no idea what I'm looking at.,1,220,20","Ian","It just makes me think of blood splattered everywhere.,-31,260,20","Jacob","Don't get the scribbles.,-13,340,20","Jeffrey","Associates with blood and crime scene,-12,40,20","0"
"23393","","survey-text","137","953296","0.0-137.0-0.0","AQKC1VIZAZ6VI","","","","{""Q0"":""could be a seascape on a foggy rainy day""}","","","","","","","","","","","","","","","","","","","","","","",""
"3055.600000023842","","image-slider-response","138","956354","0.0-138.0","AQKC1VIZAZ6VI","","","","","11","","","","","","","","","","","","","","","","","","","","","",""
"null","","image-button-response","139","961361","0.0-139.0","AQKC1VIZAZ6VI","img_art/11.jpg","null","","","","","","","","","","","","","","","","","","","","","","","","",""
"2009","","image-button-response","140","963371","0.0-140.0","AQKC1VIZAZ6VI","img_art/11.jpg","2","","","","","","","","","","","","","","","","","","","","","","","","",""
"1083","","image-button-response","141","964455","0.0-141.0-0.0","AQKC1VIZAZ6VI","img_art/11.jpg","0","","","","","","","","","","","","","","","","","","","","","","","","",""
"1267","","image-button-response","142","965724","0.0-142.0-0.0","AQKC1VIZAZ6VI","img_art/11.jpg","4","","","","","","","","","","","","","","","","","","","","","","","","",""
"null","","html-keyboard-response","143","967229","0.0-143.0","AQKC1VIZAZ6VI","<p style=""font-size: 48px;"">+</p>","","","","","null","allTrialResponses","1500","1","14","img_art/11.jpg","11","could be a seascape on a foggy rainy day","Elijah,Jorge,Ian,Jeffrey,Jacob,Andrew","Very cool, makes me feel good,39,80,20","Sad but hopeful,43,180,20","This one is a little erie, gives me post-apocalyptic feeling,27,260,20","a lot of dark colours,-8,40,20","This looks cool, and definitely comes to life in a way,36,340,20","It's a really cool painting, but it reminds me of bad traffic,-20,160,20","Ian","This one is a little erie, gives me post-apocalyptic feeling,27,260,20","Elijah","Very cool, makes me feel good,39,80,20","Jacob","This looks cool, and definitely comes to life in a way,36,340,20","0"
"65495","","survey-text","144","1032728","0.0-144.0-0.0","AQKC1VIZAZ6VI","","","","{""Q0"":""calming and peaceful in a way""}","","","","","","","","","","","","","","","","","","","","","","",""
"2660.8000000715256","","image-slider-response","145","1035391","0.0-145.0","AQKC1VIZAZ6VI","","","","","20","","","","","","","","","","","","","","","","","","","","","",""
"null","","image-button-response","146","1040393","0.0-146.0","AQKC1VIZAZ6VI","img_art/14.jpg","null","","","","","","","","","","","","","","","","","","","","","","","","",""
"1541","","image-button-response","147","1041936","0.0-147.0","AQKC1VIZAZ6VI","img_art/14.jpg","4","","","","","","","","","","","","","","","","","","","","","","","","",""
"464","","image-button-response","148","1042400","0.0-148.0-0.0","AQKC1VIZAZ6VI","img_art/14.jpg","3","","","","","","","","","","","","","","","","","","","","","","","","",""
"873","","image-button-response","149","1043274","0.0-149.0-0.0","AQKC1VIZAZ6VI","img_art/14.jpg","0","","","","","","","","","","","","","","","","","","","","","","","","",""
"null","","html-keyboard-response","150","1043781","0.0-150.0","AQKC1VIZAZ6VI","<p style=""font-size: 48px;"">+</p>","","","","","null","allTrialResponses","500","1","15","img_art/14.jpg","20","calming and peaceful in a way","Elijah,Daniel,Ian,Gabriel,Jacob,Alex","Makes me feel good,30,80,20","Baby's room palette with tree confusion in a more confused substrate.,-15,320,20","This just looks like a kids watercolor painting.,-30,260,20","i like this one!,23,160,20","I kind of like it!,6,340,20","Too abstract with annoying little details. Just draw a regular tree already,-6,100,20","Jacob","I kind of like it!,6,340,20","Gabriel","i like this one!,23,160,20","Elijah","Makes me feel good,30,80,20","0"
"11447","","survey-text","151","1055235","0.0-151.0-0.0","AQKC1VIZAZ6VI","","","","{""Q0"":""course""}","","","","","","","","","","","","","","","","","","","","","","",""
"126558","","survey-text","152","1181794","0.0-152.0-0.0","AQKC1VIZAZ6VI","","","","{""Q0"":""reminds me of an autumn day""}","","","","","","","","","","","","","","","","","","","","","","",""
"3062","","image-slider-response","153","1184858","0.0-153.0","AQKC1VIZAZ6VI","","","","","20","","","","","","","","","","","","","","","","","","","","","",""
"null","","image-button-response","154","1189867","0.0-154.0","AQKC1VIZAZ6VI","img_art/1.jpg","null","","","","","","","","","","","","","","","","","","","","","","","","",""
"1035","","image-button-response","155","1190905","0.0-155.0","AQKC1VIZAZ6VI","img_art/1.jpg","1","","","","","","","","","","","","","","","","","","","","","","","","",""
"587","","image-button-response","156","1191494","0.0-156.0-0.0","AQKC1VIZAZ6VI","img_art/1.jpg","2","","","","","","","","","","","","","","","","","","","","","","","","",""
"1029","","image-button-response","157","1192525","0.0-157.0-0.0","AQKC1VIZAZ6VI","img_art/1.jpg","5","","","","","","","","","","","","","","","","","","","","","","","","",""
"null","","html-keyboard-response","158","1193027","0.0-158.0","AQKC1VIZAZ6VI","<p style=""font-size: 48px;"">+</p>","","","","","null","allTrialResponses","500","1","16","img_art/1.jpg","20","reminds me of an autumn day","Elijah,Jonathan,Robert,Gabriel,Jacob,Luke","Makes me feel confused,-6,80,20","I love the colors but it's too intense sometimes,22,140,20","Pretty colors. Fall day in the East Coast of USA.,42,360,20","this ones alright,10,160,20","Looks like the same thing as the last piece shown to me,10,340,20","it is very colorful and makes me happy,44,20,20","Jonathan","I love the colors but it's too intense sometimes,22,140,20","Robert","Pretty colors. Fall day in the East Coast of USA.,42,360,20","Luke","it is very colorful and makes me happy,44,20,20","0"
"9352","","survey-text","159","1202383","0.0-159.0-0.0","AQKC1VIZAZ6VI","","","","{""Q0"":""someone spilled paint""}","","","","","","","","","","","","","","","","","","","","","","",""
"4139.100000023842","","image-slider-response","160","1206523","0.0-160.0","AQKC1VIZAZ6VI","","","","","-41","","","","","","","","","","","","","","","","","","","","","",""
"null","","image-button-response","161","1211527","0.0-161.0","AQKC1VIZAZ6VI","img_art/5.jpg","null","","","","","","","","","","","","","","","","","","","","","","","","",""
"953","","image-button-response","162","1212482","0.0-162.0","AQKC1VIZAZ6VI","img_art/5.jpg","5","","","","","","","","","","","","","","","","","","","","","","","","",""
"842","","image-button-response","163","1213326","0.0-163.0-0.0","AQKC1VIZAZ6VI","img_art/5.jpg","1","","","","","","","","","","","","","","","","","","","","","","","","",""
"604","","image-button-response","164","1213932","0.0-164.0-0.0","AQKC1VIZAZ6VI","img_art/5.jpg","2","","","","","","","","","","","","","","","","","","","","","","","","",""
"null","","html-keyboard-response","165","1215447","0.0-165.0","AQKC1VIZAZ6VI","<p style=""font-size: 48px;"">+</p>","","","","","null","allTrialResponses","1500","1","17","img_art/5.jpg","-41","someone spilled paint","Jake,Jonathan,Robert,Hunter,Thomas,Luke","This is interesting and nice.,16,360,20","I hate the shapes,-30,140,20","This did not do a thing for me.,-50,360,20","strong appeal in contrast,27,240,20","I'm confused by what I am looking at,-3,220,20","no clear emotion,-16,20,20","Luke","no clear emotion,-16,20,20","Jonathan","I hate the shapes,-30,140,20","Robert","This did not do a thing for me.,-50,360,20","0"
"133947","","survey-text","166","1349397","0.0-166.0-0.0","AQKC1VIZAZ6VI","","","","{""Q0"":""line of people dancing in front of fireworks""}","","","","","","","","","","","","","","","","","","","","","","",""
"2307.5999999046326","","image-slider-response","167","1351706","0.0-167.0","AQKC1VIZAZ6VI","","","","","11","","","","","","","","","","","","","","","","","","","","","",""
"null","","image-button-response","168","1356722","0.0-168.0","AQKC1VIZAZ6VI","img_art/23.jpg","null","","","","","","","","","","","","","","","","","","","","","","","","",""
"636","","image-button-response","169","1357359","0.0-169.0","AQKC1VIZAZ6VI","img_art/23.jpg","2","","","","","","","","","","","","","","","","","","","","","","","","",""
"893","","image-button-response","170","1358254","0.0-170.0-0.0","AQKC1VIZAZ6VI","img_art/23.jpg","3","","","","","","","","","","","","","","","","","","","","","","","","",""
"765","","image-button-response","171","1359021","0.0-171.0-0.0","AQKC1VIZAZ6VI","img_art/23.jpg","0","","","","","","","","","","","","","","","","","","","","","","","","",""
"null","","html-keyboard-response","172","1360522","0.0-172.0","AQKC1VIZAZ6VI","<p style=""font-size: 48px;"">+</p>","","","","","null","allTrialResponses","1500","1","18","img_art/23.jpg","11","line of people dancing in front of fireworks","Jordan,Jonathan,Robert,Angel,Jared,Luke","I like the contrast,29,160,20","Those colors are awesome! And I love the strip of negative space that almost looks like a line of people,50,140,20","This makes me think of an orchestra playing a forth of july song,12,360,20","I feel positive community and comfort. Singing along at a concert, united with a bunch of strangers through shared joy.,20,180,20","it makes me aggitated,-21,400,20","makes me happy and want to dance,43,20,20","Robert","This makes me think of an orchestra playing a forth of july song,12,360,20","Angel","I feel positive community and comfort. Singing along at a concert, united with a bunch of strangers through shared joy.,20,180,20","Jordan","I like the contrast,29,160,20","0"
"42593","","survey-text","173","1403119","0.0-173.0-0.0","AQKC1VIZAZ6VI","","","","{""Q0"":""love the brush strokes and colors in this""}","","","","","","","","","","","","","","","","","","","","","","",""
"3512.2000000476837","","image-slider-response","174","1406633","0.0-174.0","AQKC1VIZAZ6VI","","","","","31","","","","","","","","","","","","","","","","","","","","","",""
"null","","image-button-response","175","1411642","0.0-175.0","AQKC1VIZAZ6VI","img_art/17.jpg","null","","","","","","","","","","","","","","","","","","","","","","","","",""
"2328","","image-button-response","176","1413971","0.0-176.0","AQKC1VIZAZ6VI","img_art/17.jpg","3","","","","","","","","","","","","","","","","","","","","","","","","",""
"1018","","image-button-response","177","1414991","0.0-177.0-0.0","AQKC1VIZAZ6VI","img_art/17.jpg","0","","","","","","","","","","","","","","","","","","","","","","","","",""
"1082","","image-button-response","178","1416075","0.0-178.0-0.0","AQKC1VIZAZ6VI","img_art/17.jpg","2","","","","","","","","","","","","","","","","","","","","","","","","",""
"null","","html-keyboard-response","179","1417088","0.0-179.0","AQKC1VIZAZ6VI","<p style=""font-size: 48px;"">+</p>","","","","","null","allTrialResponses","1000","1","19","img_art/17.jpg","31","love the brush strokes and colors in this","Jordan,Tristan,Robert,Angel,Logan,Kevin","Really love the branches. The bottom made it not perfect,42,160,20","peaceful. contemplative. balanced. old,10,300,20","The wispy trees caught my eye.,42,360,20","Reminds me of the modern art museum in Rome. I didn't ""get"" many pieces, but had a positive cultural experience overall.,20,180,20","similar to last one, still pretty cool but I liked arrangement of last one better,13,360,20","Some new perm we got there.,12,320,20","Angel","Reminds me of the modern art museum in Rome. I didn't ""get"" many pieces, but had a positive cultural experience overall.,20,180,20","Jordan","Really love the branches. The bottom made it not perfect,42,160,20","Robert","The wispy trees caught my eye.,42,360,20","0"
"19811","","survey-text","180","1436903","0.0-180.0-0.0","AQKC1VIZAZ6VI","","","","{""Q0"":""this work feels like it has real depth and texture""}","","","","","","","","","","","","","","","","","","","","","","",""
"3350","","image-slider-response","181","1440255","0.0-181.0","AQKC1VIZAZ6VI","","","","","25","","","","","","","","","","","","","","","","","","","","","",""
"null","","image-button-response","182","1445260","0.0-182.0","AQKC1VIZAZ6VI","img_art/25.jpg","null","","","","","","","","","","","","","","","","","","","","","","","","",""
"1367","","image-button-response","183","1446628","0.0-183.0","AQKC1VIZAZ6VI","img_art/25.jpg","2","","","","","","","","","","","","","","","","","","","","","","","","",""
"441","","image-button-response","184","1447071","0.0-184.0-0.0","AQKC1VIZAZ6VI","img_art/25.jpg","1","","","","","","","","","","","","","","","","","","","","","","","","",""
"737","","image-button-response","185","1447811","0.0-185.0-0.0","AQKC1VIZAZ6VI","img_art/25.jpg","5","","","","","","","","","","","","","","","","","","","","","","","","",""
"null","","html-keyboard-response","186","1448821","0.0-186.0","AQKC1VIZAZ6VI","<p style=""font-size: 48px;"">+</p>","","","","","null","allTrialResponses","1000","1","20","img_art/25.jpg","25","this work feels like it has real depth and texture","Jordan,Nathan,Robert,Angel,Colton,Caleb","This is creepy and I dont like it,-28,160,20","I like it, a bit cryptic and obscene, I enjoy that,30,200,20","It made me think of healing.,22,360,20","I feel uneasy. Like watching someone powerful ready to perform a ritual, but I don't know their intentions.,-10,180,20","the colors are pretty,11,220,20","Very cool color, very clear message!,50,40,20","Robert","It made me think of healing.,22,360,20","Nathan","I like it, a bit cryptic and obscene, I enjoy that,30,200,20","Caleb","Very cool color, very clear message!,50,40,20","0"
"3546","","survey-text","187","1452374","0.0-187.0-0.0","AQKC1VIZAZ6VI","","","","{""Q0"":""we""}","","","","","","","","","","","","","","","","","","","","","","",""
"14457","","survey-text","188","1466832","0.0-188.0-0.0","AQKC1VIZAZ6VI","","","","{""Q0"":""love the way it appears to be 3d""}","","","","","","","","","","","","","","","","","","","","","","",""
"3490.7999999523163","","image-slider-response","189","1470325","0.0-189.0","AQKC1VIZAZ6VI","","","","","34","","","","","","","","","","","","","","","","","","","","","",""
"null","","image-button-response","190","1475327","0.0-190.0","AQKC1VIZAZ6VI","img_art/13.jpg","null","","","","","","","","","","","","","","","","","","","","","","","","",""
"448","","image-button-response","191","1475776","0.0-191.0","AQKC1VIZAZ6VI","img_art/13.jpg","1","","","","","","","","","","","","","","","","","","","","","","","","",""
"442","","image-button-response","192","1476219","0.0-192.0-0.0","AQKC1VIZAZ6VI","img_art/13.jpg","2","","","","","","","","","","","","","","","","","","","","","","","","",""
"541","","image-button-response","193","1476762","0.0-193.0-0.0","AQKC1VIZAZ6VI","img_art/13.jpg","0","","","","","","","","","","","","","","","","","","","","","","","","",""
"null","","html-keyboard-response","194","1478271","0.0-194.0","AQKC1VIZAZ6VI","<p style=""font-size: 48px;"">+</p>","","","","","null","allTrialResponses","1500","1","21","img_art/13.jpg","34","love the way it appears to be 3d","Nicholas,Nathan,Robert,Antonio,Paul,Caleb","Nice colors. beautiful blue,50,240,20","While it is a bit basic and doesn't speak to me much, I like the feeling it gives,40,200,20","Raindrops splashing on the window.,50,360,20","Pretty but didnt cause a reaction,33,220,20","It's like any other splatter paint art piece, nothing special,1,300,20","Lots of depth and character.,30,40,20","Nathan","While it is a bit basic and doesn't speak to me much, I like the feeling it gives,40,200,20","Robert","Raindrops splashing on the window.,50,360,20","Nicholas","Nice colors. beautiful blue,50,240,20","0"
"10650","","survey-text","195","1488926","0.0-195.0-0.0","AQKC1VIZAZ6VI","","","","{""Q0"":""looks modern and urban""}","","","","","","","","","","","","","","","","","","","","","","",""
"4357.399999976158","","image-slider-response","196","1493285","0.0-196.0","AQKC1VIZAZ6VI","","","","","14","","","","","","","","","","","","","","","","","","","","","",""
"null","","image-button-response","197","1499223","0.0-197.0","AQKC1VIZAZ6VI","img_art/29.jpg","null","","","","","","","","","","","","","","","","","","","","","","","","",""
"11330","","image-button-response","198","1510555","0.0-198.0","AQKC1VIZAZ6VI","img_art/29.jpg","5","","","","","","","","","","","","","","","","","","","","","","","","",""
"541","","image-button-response","199","1511097","0.0-199.0-0.0","AQKC1VIZAZ6VI","img_art/29.jpg","4","","","","","","","","","","","","","","","","","","","","","","","","",""
"1032","","image-button-response","200","1512131","0.0-200.0-0.0","AQKC1VIZAZ6VI","img_art/29.jpg","0","","","","","","","","","","","","","","","","","","","","","","","","",""
"null","","html-keyboard-response","201","1513133","0.0-201.0","AQKC1VIZAZ6VI","<p style=""font-size: 48px;"">+</p>","","","","","null","allTrialResponses","1000","1","22","img_art/29.jpg","14","looks modern and urban","Nicholas,Nathan,Robert,Shane,Aaron,Samuel","I love this things almost hidden in it like paint brush and other details,50,240,20","Quite ugly in my opinion,-30,200,20","Looks like a murder,-50,360,20","Darkness and torment,-50,80,20","I like the texture and colors and how it makes me feel. I like how it's different from other abstract art.,45,20,20","too challenging to comprehend,-28,400,20","Samuel","too challenging to comprehend,-28,400,20","Aaron","I like the texture and colors and how it makes me feel. I like how it's different from other abstract art.,45,20,20","Nicholas","I love this things almost hidden in it like paint brush and other details,50,240,20","0"
"14693","","survey-text","202","1527830","0.0-202.0-0.0","AQKC1VIZAZ6VI","","","","{""Q0"":""looks like the key to venice""}","","","","","","","","","","","","","","","","","","","","","","",""
"2681.8000000715256","","image-slider-response","203","1530513","0.0-203.0","AQKC1VIZAZ6VI","","","","","7","","","","","","","","","","","","","","","","","","","","","",""
"null","","image-button-response","204","1535529","0.0-204.0","AQKC1VIZAZ6VI","img_art/22.jpg","null","","","","","","","","","","","","","","","","","","","","","","","","",""
"8195","","image-button-response","205","1543726","0.0-205.0","AQKC1VIZAZ6VI","img_art/22.jpg","5","","","","","","","","","","","","","","","","","","","","","","","","",""
"1259","","image-button-response","206","1544986","0.0-206.0-0.0","AQKC1VIZAZ6VI","img_art/22.jpg","0","","","","","","","","","","","","","","","","","","","","","","","","",""
"576","","image-button-response","207","1545564","0.0-207.0-0.0","AQKC1VIZAZ6VI","img_art/22.jpg","2","","","","","","","","","","","","","","","","","","","","","","","","",""
"null","","html-keyboard-response","208","1546072","0.0-208.0","AQKC1VIZAZ6VI","<p style=""font-size: 48px;"">+</p>","","","","","null","allTrialResponses","500","1","23","img_art/22.jpg","7","looks like the key to venice","Nicholas,Ethan,James,Adrian,Aaron,Samuel","Pretty colors but something seems sinister about it,25,240,20","I do not like the color combo. This piece is too much the same throughout.,-1,120,20","Like the black key and the rainbow color theme.,31,380,20","Too much contrasting colors makes me feel anxious. I don't like it.,-20,60,20","Boring, typical abstract art,-30,20,20","ball of light in 90s,8,400,20","Samuel","ball of light in 90s,8,400,20","Nicholas","Pretty colors but something seems sinister about it,25,240,20","James","Like the black key and the rainbow color theme.,31,380,20","0"
"23101","","survey-text","209","1569177","0.0-209.0-0.0","AQKC1VIZAZ6VI","","","","{""Q0"":""like something from a horror movie""}","","","","","","","","","","","","","","","","","","","","","","",""
"3442","","image-slider-response","210","1572621","0.0-210.0","AQKC1VIZAZ6VI","","","","","15","","","","","","","","","","","","","","","","","","","","","",""
"null","","image-button-response","211","1577624","0.0-211.0","AQKC1VIZAZ6VI","img_art/18.jpg","null","","","","","","","","","","","","","","","","","","","","","","","","",""
"3749","","image-button-response","212","1581375","0.0-212.0","AQKC1VIZAZ6VI","img_art/18.jpg","2","","","","","","","","","","","","","","","","","","","","","","","","",""
"625","","image-button-response","213","1582001","0.0-213.0-0.0","AQKC1VIZAZ6VI","img_art/18.jpg","1","","","","","","","","","","","","","","","","","","","","","","","","",""
"710","","image-button-response","214","1582713","0.0-214.0-0.0","AQKC1VIZAZ6VI","img_art/18.jpg","3","","","","","","","","","","","","","","","","","","","","","","","","",""
"null","","html-keyboard-response","215","1584228","0.0-215.0","AQKC1VIZAZ6VI","<p style=""font-size: 48px;"">+</p>","","","","","null","allTrialResponses","1500","1","24","img_art/18.jpg","15","like something from a horror movie","Nicholas,Matthew,James,John,Zachary,Samuel","Id love to see this piece closer. So much extra details hidden it it.,50,240,20","Resembles a ship at sea, storm of activity.,28,120,20","Very eerie and it's spooky,11,380,20","There are alot of elements to this painting and a good mix of colors,32,120,20","This one seems rather ghoulish to me.,-41,400,20","death rides in life,-25,400,20","James","Very eerie and it's spooky,11,380,20","Matthew","Resembles a ship at sea, storm of activity.,28,120,20","John","There are alot of elements to this painting and a good mix of colors,32,120,20","0"
"16918","","survey-text","216","1601151","0.0-216.0-0.0","AQKC1VIZAZ6VI","","","","{""Q0"":""more variation in the color would make it pop""}","","","","","","","","","","","","","","","","","","","","","","",""
"4294.800000071526","","image-slider-response","217","1605448","0.0-217.0","AQKC1VIZAZ6VI","","","","","-28","","","","","","","","","","","","","","","","","","","","","",""
"null","","image-button-response","218","1610474","0.0-218.0","AQKC1VIZAZ6VI","img_art/28.jpg","null","","","","","","","","","","","","","","","","","","","","","","","","",""
"436","","image-button-response","219","1610912","0.0-219.0","AQKC1VIZAZ6VI","img_art/28.jpg","5","","","","","","","","","","","","","","","","","","","","","","","","",""
"1083","","image-button-response","220","1611997","0.0-220.0-0.0","AQKC1VIZAZ6VI","img_art/28.jpg","2","","","","","","","","","","","","","","","","","","","","","","","","",""
"1013","","image-button-response","221","1613012","0.0-221.0-0.0","AQKC1VIZAZ6VI","img_art/28.jpg","4","","","","","","","","","","","","","","","","","","","","","","","","",""
"null","","html-keyboard-response","222","1614515","0.0-222.0","AQKC1VIZAZ6VI","<p style=""font-size: 48px;"">+</p>","","","","","null","allTrialResponses","1500","1","25","img_art/28.jpg","-28","more variation in the color would make it pop","Malik,Matthew,James,John,Spencer,Brian","Invokes curiosity, I want to know it's story.,15,40,20","Normally don't react well to abstract art, but it looks almost like something's there.,28,120,20","My grandparents would like this, maybe my great grandparents. It's not my style.,-30,380,20","Not a fan of the bleak and dreary colors,-10,120,20","Too me it's a mish mash, true abstract,-37,120,20","the people kind of scare me in this one,-15,380,20","Brian","the people kind of scare me in this one,-15,380,20","James","My grandparents would like this, maybe my great grandparents. It's not my style.,-30,380,20","Spencer","Too me it's a mish mash, true abstract,-37,120,20","0"
"5474","","survey-text","223","1619997","0.0-223.0-0.0","AQKC1VIZAZ6VI","","","","{""Q0"":""table""}","","","","","","","","","","","","","","","","","","","","","","",""
"23812","","survey-text","224","1643810","0.0-224.0-0.0","AQKC1VIZAZ6VI","","","","{""Q0"":""interesting brush work shows a variety of techniques""}","","","","","","","","","","","","","","","","","","","","","","",""
"3055.399999976158","","image-slider-response","225","1646867","0.0-225.0","AQKC1VIZAZ6VI","","","","","20","","","","","","","","","","","","","","","","","","","","","",""
"null","","image-button-response","226","1651879","0.0-226.0","AQKC1VIZAZ6VI","img_art/10.jpg","null","","","","","","","","","","","","","","","","","","","","","","","","",""
"4326","","image-button-response","227","1656207","0.0-227.0","AQKC1VIZAZ6VI","img_art/10.jpg","2","","","","","","","","","","","","","","","","","","","","","","","","",""
"857","","image-button-response","228","1657065","0.0-228.0-0.0","AQKC1VIZAZ6VI","img_art/10.jpg","3","","","","","","","","","","","","","","","","","","","","","","","","",""
"894","","image-button-response","229","1657961","0.0-229.0-0.0","AQKC1VIZAZ6VI","img_art/10.jpg","0","","","","","","","","","","","","","","","","","","","","","","","","",""
"null","","html-keyboard-response","230","1658467","0.0-230.0","AQKC1VIZAZ6VI","<p style=""font-size: 48px;"">+</p>","","","","","null","allTrialResponses","500","1","26","img_art/10.jpg","20","interesting brush work shows a variety of techniques","Joshua,Victor,James,Anthony,Spencer,Brian","This one is interesting. I like it.,11,240,20","Looks like someone just smeared some paint and called it good. Do not like.,-6,340,20","I have no opinions on this one,0,380,20","I am neutral towards the artwork,1,200,20","Dark with no object, looks like experimentation, slightly like a storm on the ocean,-21,120,20","this is a good painting, but feels musical in a way that I don't connect with.,-14,380,20","James","I have no opinions on this one,0,380,20","Anthony","I am neutral towards the artwork,1,200,20","Joshua","This one is interesting. I like it.,11,240,20","0"
"23630","","survey-text","231","1682103","0.0-231.0-0.0","AQKC1VIZAZ6VI","","","","{""Q0"":""doesn't look like art looks random""}","","","","","","","","","","","","","","","","","","","","","","",""
"1970.2999999523163","","image-slider-response","232","1684075","0.0-232.0","AQKC1VIZAZ6VI","","","","","-34","","","","","","","","","","","","","","","","","","","","","",""
"null","","image-button-response","233","1689088","0.0-233.0","AQKC1VIZAZ6VI","img_art/7.jpg","null","","","","","","","","","","","","","","","","","","","","","","","","",""
"789","","image-button-response","234","1689880","0.0-234.0","AQKC1VIZAZ6VI","img_art/7.jpg","1","","","","","","","","","","","","","","","","","","","","","","","","",""
"654","","image-button-response","235","1690534","0.0-235.0-0.0","AQKC1VIZAZ6VI","img_art/7.jpg","2","","","","","","","","","","","","","","","","","","","","","","","","",""
"828","","image-button-response","236","1691365","0.0-236.0-0.0","AQKC1VIZAZ6VI","img_art/7.jpg","3","","","","","","","","","","","","","","","","","","","","","","","","",""
"null","","html-keyboard-response","237","1691884","0.0-237.0","AQKC1VIZAZ6VI","<p style=""font-size: 48px;"">+</p>","","","","","null","allTrialResponses","500","1","27","img_art/7.jpg","-34","doesn't look like art looks random","Joshua,Trevor,James,Anthony,Alejandro,Kyle","Looks almost like a photograph of nature.,11,240,20","looks like the surface of the moon,-28,280,20","Looks plain and dull, sorry.,-31,380,20","Very, very dull compared to the other paintings,-36,200,20","I thought I was looking at a satellite image of mars.,21,80,20","It just reminds me of dirt,-10,340,20","Trevor","looks like the surface of the moon,-28,280,20","James","Looks plain and dull, sorry.,-31,380,20","Anthony","Very, very dull compared to the other paintings,-36,200,20","0"
"17464","","survey-text","238","1709353","0.0-238.0-0.0","AQKC1VIZAZ6VI","","","","{""Q0"":""love how the straight lines mix with the natural curves""}","","","","","","","","","","","","","","","","","","","","","","",""
"2408.1999999284744","","image-slider-response","239","1711763","0.0-239.0","AQKC1VIZAZ6VI","","","","","34","","","","","","","","","","","","","","","","","","","","","",""
"null","","image-button-response","240","1716764","0.0-240.0","AQKC1VIZAZ6VI","img_art/8.jpg","null","","","","","","","","","","","","","","","","","","","","","","","","",""
"700","","image-button-response","241","1717467","0.0-241.0","AQKC1VIZAZ6VI","img_art/8.jpg","5","","","","","","","","","","","","","","","","","","","","","","","","",""
"520","","image-button-response","242","1717989","0.0-242.0-0.0","AQKC1VIZAZ6VI","img_art/8.jpg","3","","","","","","","","","","","","","","","","","","","","","","","","",""
"511","","image-button-response","243","1718502","0.0-243.0-0.0","AQKC1VIZAZ6VI","img_art/8.jpg","4","","","","","","","","","","","","","","","","","","","","","","","","",""
"null","","html-keyboard-response","244","1719004","0.0-244.0","AQKC1VIZAZ6VI","<p style=""font-size: 48px;"">+</p>","","","","","null","allTrialResponses","500","1","28","img_art/8.jpg","34","love how the straight lines mix with the natural curves","Steven,Trevor,James,Anthony,Luis,Travis","very nice, i love what's going on here,21,160,20","it looks very 80's and kind of scary,-11,280,20","It's very odd and I don't really like it,-30,380,20","Not my favorite but has an interesting concept,32,200,20","I love the expressiveness of this,50,400,20","I like the colors and the scene.,24,260,20","Travis","I like the colors and the scene.,24,260,20","Anthony","Not my favorite but has an interesting concept,32,200,20","Luis","I love the expressiveness of this,50,400,20","0"
"18524","","survey-text","245","1737534","0.0-245.0-0.0","AQKC1VIZAZ6VI","","","","{""Q0"":""the pea soup green doesn't help this mess""}","","","","","","","","","","","","","","","","","","","","","","",""
"3779.600000023842","","image-slider-response","246","1741315","0.0-246.0","AQKC1VIZAZ6VI","","","","","-37","","","","","","","","","","","","","","","","","","","","","",""
"null","","image-button-response","247","1746324","0.0-247.0","AQKC1VIZAZ6VI","img_art/2.jpg","null","","","","","","","","","","","","","","","","","","","","","","","","",""
"821","","image-button-response","248","1747147","0.0-248.0","AQKC1VIZAZ6VI","img_art/2.jpg","2","","","","","","","","","","","","","","","","","","","","","","","","",""
"1246","","image-button-response","249","1748395","0.0-249.0-0.0","AQKC1VIZAZ6VI","img_art/2.jpg","5","","","","","","","","","","","","","","","","","","","","","","","","",""
"688","","image-button-response","250","1749085","0.0-250.0-0.0","AQKC1VIZAZ6VI","img_art/2.jpg","3","","","","","","","","","","","","","","","","","","","","","","","","",""
"null","","html-keyboard-response","251","1749586","0.0-251.0","AQKC1VIZAZ6VI","<p style=""font-size: 48px;"">+</p>","","","","","null","allTrialResponses","500","1","29","img_art/2.jpg","-37","the pea soup green doesn't help this mess","Corey,Dakota,Jesse,Anthony,Luis,Travis","doesn't do anything for me,-7,260,20","active and kinetic- simplified,14,280,20","Looks childish and i dont like the texture,-25,80,20","Ugly color scheme,-50,200,20","I dont like the expression of this,-19,400,20","I didn't like this it looked like a kindergardner painted it and the green was out of place.,-46,260,20","Jesse","Looks childish and i dont like the texture,-25,80,20","Travis","I didn't like this it looked like a kindergardner painted it and the green was out of place.,-46,260,20","Anthony","Ugly color scheme,-50,200,20","0"
"19202","","survey-text","252","1768794","0.0-252.0-0.0","AQKC1VIZAZ6VI","","","","{""Q0"":""love the brush strokes and the color change""}","","","","","","","","","","","","","","","","","","","","","","",""
"3992.2000000476837","","image-slider-response","253","1772788","0.0-253.0","AQKC1VIZAZ6VI","","","","","27","","","","","","","","","","","","","","","","","","","","","",""
"null","","image-button-response","254","1777805","0.0-254.0","AQKC1VIZAZ6VI","img_art/12.jpg","null","","","","","","","","","","","","","","","","","","","","","","","","",""
"2680","","image-button-response","255","1780487","0.0-255.0","AQKC1VIZAZ6VI","img_art/12.jpg","0","","","","","","","","","","","","","","","","","","","","","","","","",""
"928","","image-button-response","256","1781417","0.0-256.0-0.0","AQKC1VIZAZ6VI","img_art/12.jpg","5","","","","","","","","","","","","","","","","","","","","","","","","",""
"970","","image-button-response","257","1782389","0.0-257.0-0.0","AQKC1VIZAZ6VI","img_art/12.jpg","1","","","","","","","","","","","","","","","","","","","","","","","","",""
"null","","html-keyboard-response","258","1783897","0.0-258.0","AQKC1VIZAZ6VI","<p style=""font-size: 48px;"">+</p>","","","","","null","allTrialResponses","1500","1","30","img_art/12.jpg","27","love the brush strokes and the color change","Bradley,Connor,Jesse,Anthony,Juan,Travis","Good technique. It's just not my thing.,2,300,20","City scape but palette is odd,4,240,20","Just confuses me overall,-11,80,20","This piece doesn't provoke any kind of reaction,0,200,20","This is too abstract and the colors are too worn out.,-23,260,20","Neutral...just blocks.,3,260,20","Bradley","Good technique. It's just not my thing.,2,300,20","Travis","Neutral...just blocks.,3,260,20","Connor","City scape but palette is odd,4,240,20","0"
"4095","","image-button-response_instructions","259","1787996","0.0-259.0","AQKC1VIZAZ6VI","","0","instructions","","","","","","","","","","","","","","","","","","","","","","","",""
"982","","image-button-response","260","1788983","0.0-260.0","AQKC1VIZAZ6VI","","0","","","","","","","","","","","","","","","","","","","","","","","","",""
