"rt","url","trial_type","trial_index","time_elapsed","internal_node_id","participant_id","stimulus","button_pressed","Name","responses","response","key_press","variableName","fixationTime","condition","trial","photo","subjectRating","subjectResponse","agentsNames","agent_1_Response","agent_2_Response","agent_3_Response","agent_4_Response","agent_5_Response","agent_6_Response","kept_1_name","kept_1_response","kept_2_name","kept_2_response","kept_3_name","kept_3_response","errorCounter"
"11298","external_page_harvard.html","external-html","0","11687","0.0-0.0","AQXEQDTAU4MJ4","","","","","","","","","","","","","","","","","","","","","","","","","","",""
"1520","","image-button-response","1","13214","0.0-1.0","AQXEQDTAU4MJ4","","1","","","","","","","","","","","","","","","","","","","","","","","","",""
"3364","","image-button-response","2","16592","0.0-2.0-0.0","AQXEQDTAU4MJ4","","1","phone","","","","","","","","","","","","","","","","","","","","","","","",""
"6957","","survey-text","3","23554","0.0-3.0-0.0","AQXEQDTAU4MJ4","","","","{""Q0"":""AQXEQDTAU4MJ4""}","","","","","","","","","","","","","","","","","","","","","","",""
"5438","","image-button-response_instructions","4","29002","0.0-4.0","AQXEQDTAU4MJ4","","0","instructions","","","","","","","","","","","","","","","","","","","","","","","",""
"16096","","image-button-response_instructions","5","45103","0.0-5.0","AQXEQDTAU4MJ4","img_art/ins/popularity/ins1.png","0","instructions","","","","","","","","","","","","","","","","","","","","","","","",""
"6949","","image-button-response_instructions","6","52055","0.0-6.0","AQXEQDTAU4MJ4","img_art/ins/popularity/ins2.png","0","instructions","","","","","","","","","","","","","","","","","","","","","","","",""
"12731","","image-button-response_instructions","7","64791","0.0-7.0","AQXEQDTAU4MJ4","img_art/ins/popularity/ins2Extreme.png","0","instructions","","","","","","","","","","","","","","","","","","","","","","","",""
"6564","","image-button-response_instructions","8","71359","0.0-8.0","AQXEQDTAU4MJ4","img_art/ins/popularity/ins3KEEPpop.PNG","0","instructions","","","","","","","","","","","","","","","","","","","","","","","",""
"5532","","image-button-response_instructions","9","76895","0.0-9.0","AQXEQDTAU4MJ4","img_art/ins/popularity/ins3ANamepop.PNG","0","instructions","","","","","","","","","","","","","","","","","","","","","","","",""
"4338","","image-button-response_instructions","10","81238","0.0-10.0","AQXEQDTAU4MJ4","img_art/ins/popularity/ins3ARatingpop.png","0","instructions","","","","","","","","","","","","","","","","","","","","","","","",""
"3101","","image-button-response_instructions","11","84344","0.0-11.0","AQXEQDTAU4MJ4","img_art/ins/popularity/ins3ATextpop.png","0","instructions","","","","","","","","","","","","","","","","","","","","","","","",""
"5276","","image-button-response_instructions","12","89625","0.0-12.0","AQXEQDTAU4MJ4","img_art/ins/popularity/ins3ALikespop.png","0","instructions","","","","","","","","","","","","","","","","","","","","","","","",""
"8756","","image-button-response_instructions","13","98386","0.0-13.0","AQXEQDTAU4MJ4","img_art/ins/popularity/ins3KEEPpop.PNG","0","instructions","","","","","","","","","","","","","","","","","","","","","","","",""
"6414","","image-button-response_instructions","14","104804","0.0-14.0","AQXEQDTAU4MJ4","img_art/ins/popularity/ins3_5RED.png","0","instructions","","","","","","","","","","","","","","","","","","","","","","","",""
"5307","","image-button-response_instructions","15","110114","0.0-15.0","AQXEQDTAU4MJ4","img_art/ins/popularity/ins3KEEPpop.PNG","0","instructions","","","","","","","","","","","","","","","","","","","","","","","",""
"7798","","image-button-response_instructions","16","117916","0.0-16.0","AQXEQDTAU4MJ4","img_art/ins/popularity/ins4KEEPpop.PNG","0","instructions","","","","","","","","","","","","","","","","","","","","","","","",""
"4000","","image-button-response_instructions","17","121919","0.0-17.0","AQXEQDTAU4MJ4","img_art/ins/popularity/ins5KEEPpop.PNG","0","instructions","","","","","","","","","","","","","","","","","","","","","","","",""
"2795","","image-button-response_instructions","18","124719","0.0-18.0","AQXEQDTAU4MJ4","","0","instructions","","","","","","","","","","","","","","","","","","","","","","","",""
"8265","","survey-text","19","133038","0.0-19.0-0.0","AQXEQDTAU4MJ4","","","","{""Q0"":""but""}","","","","","","","","","","","","","","","","","","","","","","",""
"23184","","survey-text","20","156227","0.0-20.0-0.0","AQXEQDTAU4MJ4","","","","{""Q0"":""colorful,messy and boring""}","","","","","","","","","","","","","","","","","","","","","","",""
"8246.900000000373","","image-slider-response","21","164487","0.0-21.0","AQXEQDTAU4MJ4","","","","","-14","","","","","","","","","","","","","","","","","","","","","",""
"null","","image-button-response","22","169496","0.0-22.0","AQXEQDTAU4MJ4","img_art/ins/1.jpg","null","","","","","","","","","","","","","","","","","","","","","","","","",""
"30506","","image-button-response","23","200007","0.0-23.0","AQXEQDTAU4MJ4","img_art/ins/1.jpg","3","","","","","","","","","","","","","","","","","","","","","","","","",""
"4327","","image-button-response","24","204342","0.0-24.0-0.0","AQXEQDTAU4MJ4","img_art/ins/1.jpg","4","","","","","","","","","","","","","","","","","","","","","","","","",""
"3308","","image-button-response","25","207658","0.0-25.0-0.0","AQXEQDTAU4MJ4","img_art/ins/1.jpg","4","","","","","","","","","","","","","","","","","","","","","","","","",""
"4707","","image-button-response","26","215383","0.0-25.1-0.1","AQXEQDTAU4MJ4","img_art/ins/1.jpg","5","","","","","","","","","","","","","","","","","","","","","","","","",""
"null","","html-keyboard-response","27","215894","0.0-26.0","AQXEQDTAU4MJ4","<p style=""font-size: 48px;"">+</p>","","","","","null","allTrialResponses","500","1","-2","img_art/ins/1.jpg","-14","colorful,messy and boring","Allison,Ashley,Beth,Dora,Erika,Jen","looks like a lot of things going on in the mist,20,20,20","I just don't get why these type of art would be popular,-32,40,20","This color reminds me of poo,-46,60,20","looks like what my niece in 3rd grade did this afternoon,-50,80,20","I like the sophisticated brushwork,40,100,20","It reminds me of a candy land dream I had,36,120,20","Dora","looks like what my niece in 3rd grade did this afternoon,-50,80,20","Erika","I like the sophisticated brushwork,40,100,20","Jen","It reminds me of a candy land dream I had,36,120,20","2"
"39326","","survey-text","28","255238","0.0-27.0-0.0","AQXEQDTAU4MJ4","","","","{""Q0"":""i don't like the color scheme going on""}","","","","","","","","","","","","","","","","","","","","","","",""
"4008.5999999996275","","image-slider-response","29","259251","0.0-28.0","AQXEQDTAU4MJ4","","","","","-7","","","","","","","","","","","","","","","","","","","","","",""
"null","","image-button-response","30","264258","0.0-29.0","AQXEQDTAU4MJ4","img_art/ins/2.jpg","null","","","","","","","","","","","","","","","","","","","","","","","","",""
"17019","","image-button-response","31","281283","0.0-30.0","AQXEQDTAU4MJ4","img_art/ins/2.jpg","5","","","","","","","","","","","","","","","","","","","","","","","","",""
"3230","","image-button-response","32","284521","0.0-31.0-0.0","AQXEQDTAU4MJ4","img_art/ins/2.jpg","4","","","","","","","","","","","","","","","","","","","","","","","","",""
"9520","","image-button-response","33","294048","0.0-32.0-0.0","AQXEQDTAU4MJ4","img_art/ins/2.jpg","1","","","","","","","","","","","","","","","","","","","","","","","","",""
"null","","html-keyboard-response","34","295051","0.0-33.0","AQXEQDTAU4MJ4","<p style=""font-size: 48px;"">+</p>","","","","","null","allTrialResponses","1000","1","-1","img_art/ins/2.jpg","-7","i don't like the color scheme going on","Jenna,Kara,Katie,Dora,Erika,Jen","One of my pet peevs,-48,140,20","I like the blocks of color arrangements,30,160,20","too much color!,-28,180,20","looks too angry,-50,80,20","I would never be able to compose a sophisticated pallete like this,48,100,20","It reminds me of a fireplace,36,120,20","Jen","It reminds me of a fireplace,36,120,20","Erika","I would never be able to compose a sophisticated pallete like this,48,100,20","Kara","I like the blocks of color arrangements,30,160,20","2"
"15214","","survey-text","35","310275","0.0-34.0-0.0","AQXEQDTAU4MJ4","","","","{""Q0"":""looks cold""}","","","","","","","","","","","","","","","","","","","","","","",""
"4601.4000000003725","","image-slider-response","36","314881","0.0-35.0","AQXEQDTAU4MJ4","","","","","-4","","","","","","","","","","","","","","","","","","","","","",""
"4056","","image-button-response","37","319886","0.0-36.0","AQXEQDTAU4MJ4","img_art/ins/3.jpg","1","","","","","","","","","","","","","","","","","","","","","","","","",""
"203","","image-button-response","38","320096","0.0-37.0","AQXEQDTAU4MJ4","img_art/ins/3.jpg","1","","","","","","","","","","","","","","","","","","","","","","","","",""
"8526","","image-button-response","39","328632","0.0-38.0-0.0","AQXEQDTAU4MJ4","img_art/ins/3.jpg","5","","","","","","","","","","","","","","","","","","","","","","","","",""
"2605","","image-button-response","40","331243","0.0-39.0-0.0","AQXEQDTAU4MJ4","img_art/ins/3.jpg","2","","","","","","","","","","","","","","","","","","","","","","","","",""
"null","","html-keyboard-response","41","332249","0.0-40.0","AQXEQDTAU4MJ4","<p style=""font-size: 48px;"">+</p>","","","","","null","allTrialResponses","1000","1","0","img_art/ins/3.jpg","-4","looks cold","Mary,Kara,Rose,Leslie,Erika,Jen","I like the overlapping of brushes,41,220,20","calming blue is very nice,36,160,20","My daily routine, it's depressing,-20,240,20","It's an alright work,15,200,20","I feel connected to the artist,40,100,20","I can feel a rainy day from this painting,18,120,20","Kara","calming blue is very nice,36,160,20","Jen","I can feel a rainy day from this painting,18,120,20","Rose","My daily routine, it's depressing,-20,240,20","2"
"6899","","image-button-response_instructions","42","339172","0.0-41.0","AQXEQDTAU4MJ4","","0","instructions","","","","","","","","","","","","","","","","","","","","","","","",""
"13687","","survey-likert","43","352863","0.0-42.0-0.0","AQXEQDTAU4MJ4","","","","{""Q0"":"""",""Q1"":0,""Q2"":1}","","","","","","","","","","","","","","","","","","","","","","",""
"5570","","survey-text","44","358449","0.0-43.0-0.0","AQXEQDTAU4MJ4","","","","{""Q0"":""rock""}","","","","","","","","","","","","","","","","","","","","","","",""
"22934","","survey-text","45","381392","0.0-44.0-0.0","AQXEQDTAU4MJ4","","","","{""Q0"":""looks like an angry 3rd grader made this""}","","","","","","","","","","","","","","","","","","","","","","",""
"4487.5","","image-slider-response","46","385886","0.0-45.0","AQXEQDTAU4MJ4","","","","","-29","","","","","","","","","","","","","","","","","","","","","",""
"null","","image-button-response","47","390945","0.0-46.0","AQXEQDTAU4MJ4","img_art/9.jpg","null","","","","","","","","","","","","","","","","","","","","","","","","",""
"18257","","image-button-response","48","409207","0.0-47.0","AQXEQDTAU4MJ4","img_art/9.jpg","3","","","","","","","","","","","","","","","","","","","","","","","","",""
"1419","","image-button-response","49","410633","0.0-48.0-0.0","AQXEQDTAU4MJ4","img_art/9.jpg","0","","","","","","","","","","","","","","","","","","","","","","","","",""
"2777","","image-button-response","50","413436","0.0-49.0-0.0","AQXEQDTAU4MJ4","img_art/9.jpg","0","","","","","","","","","","","","","","","","","","","","","","","","",""
"6839","","image-button-response","51","424918","0.0-49.1-0.1","AQXEQDTAU4MJ4","img_art/9.jpg","5","","","","","","","","","","","","","","","","","","","","","","","","",""
"null","","html-keyboard-response","52","425423","0.0-50.0","AQXEQDTAU4MJ4","<p style=""font-size: 48px;"">+</p>","","","","","null","allTrialResponses","500","1","1","img_art/9.jpg","-29","looks like an angry 3rd grader made this","Cheyenne,Christina,Alexa,Anna,Jasmine,Courtney","Too much going on, don't know what the focus is,-11,200,20","nice colors but it looks like it's from the 80s,10,240,20","It's wild and chaotic but also beautiful and has some kind of calming factor about it,20,40,20","It looks like a child's crayon drawing.,-10,300,20","I like abstract art that looks that there is more than random brush strokes. This one looks the former,10,340,20","This is a picture of a scary mans head sideways.,-24,280,20","Anna","It looks like a child's crayon drawing.,-10,300,20","Cheyenne","Too much going on, don't know what the focus is,-11,200,20","Courtney","This is a picture of a scary mans head sideways.,-24,280,20","4"
"18665","","survey-text","53","444101","0.0-51.0-0.0","AQXEQDTAU4MJ4","","","","{""Q0"":""kinda creepy but also kinda cool""}","","","","","","","","","","","","","","","","","","","","","","",""
"4214.700000000186","","image-slider-response","54","448321","0.0-52.0","AQXEQDTAU4MJ4","","","","","4","","","","","","","","","","","","","","","","","","","","","",""
"null","","image-button-response","55","453329","0.0-53.0","AQXEQDTAU4MJ4","img_art/25.jpg","null","","","","","","","","","","","","","","","","","","","","","","","","",""
"13513","","image-button-response","56","466849","0.0-54.0","AQXEQDTAU4MJ4","img_art/25.jpg","1","","","","","","","","","","","","","","","","","","","","","","","","",""
"1465","","image-button-response","57","468323","0.0-55.0-0.0","AQXEQDTAU4MJ4","img_art/25.jpg","5","","","","","","","","","","","","","","","","","","","","","","","","",""
"5449","","image-button-response","58","473780","0.0-56.0-0.0","AQXEQDTAU4MJ4","img_art/25.jpg","3","","","","","","","","","","","","","","","","","","","","","","","","",""
"null","","html-keyboard-response","59","474284","0.0-57.0","AQXEQDTAU4MJ4","<p style=""font-size: 48px;"">+</p>","","","","","null","allTrialResponses","500","1","2","img_art/25.jpg","4","kinda creepy but also kinda cool","Cheyenne,Mackenzie,Shannon,Anna,Alexandria,Courtney","It's nice but nothing special.,7,200,20","Very nice color contrast and design.,40,20,20","I like the way the persons clothes look, there could be more color though.,10,220,20","I love the green and the texture,50,300,20","the contrasting colors are very interesting,24,80,20","That on i find a bit creapy.,-19,280,20","Mackenzie","Very nice color contrast and design.,40,20,20","Courtney","That on i find a bit creapy.,-19,280,20","Anna","I love the green and the texture,50,300,20","4"
"30540","","survey-text","60","504833","0.0-58.0-0.0","AQXEQDTAU4MJ4","","","","{""Q0"":""not sure what is going on. ""}","","","","","","","","","","","","","","","","","","","","","","",""
"7592.399999999441","","image-slider-response","61","512436","0.0-59.0","AQXEQDTAU4MJ4","","","","","-36","","","","","","","","","","","","","","","","","","","","","",""
"4282","","image-button-response","62","517443","0.0-60.0","AQXEQDTAU4MJ4","img_art/5.jpg","3","","","","","","","","","","","","","","","","","","","","","","","","",""
"8720","","image-button-response","63","526172","0.0-61.0","AQXEQDTAU4MJ4","img_art/5.jpg","2","","","","","","","","","","","","","","","","","","","","","","","","",""
"2531","","image-button-response","64","528711","0.0-62.0-0.0","AQXEQDTAU4MJ4","img_art/5.jpg","4","","","","","","","","","","","","","","","","","","","","","","","","",""
"1450","","image-button-response","65","530169","0.0-63.0-0.0","AQXEQDTAU4MJ4","img_art/5.jpg","3","","","","","","","","","","","","","","","","","","","","","","","","",""
"null","","html-keyboard-response","66","530676","0.0-64.0","AQXEQDTAU4MJ4","<p style=""font-size: 48px;"">+</p>","","","","","null","allTrialResponses","500","1","3","img_art/5.jpg","-36","not sure what is going on. ","Chloe,Mackenzie,Diana,Anna,Alexis,Courtney","Black stripe looks violent,-31,220,20","Overpowering colors.,-26,20,20","I didn't care for this art piece. I wasn't sure about the color choice.,-15,380,20","It's kind of boring.,-20,300,20","Kindergarten art. I really don't like this style.,-50,100,20","A rabbits head.,4,280,20","Diana","I didn't care for this art piece. I wasn't sure about the color choice.,-15,380,20","Alexis","Kindergarten art. I really don't like this style.,-50,100,20","Anna","It's kind of boring.,-20,300,20","4"
"34429","","survey-text","67","565121","0.0-65.0-0.0","AQXEQDTAU4MJ4","","","","{""Q0"":""interesting, I feel like it has potential to be something creative""}","","","","","","","","","","","","","","","","","","","","","","",""
"3148.800000000745","","image-slider-response","68","568278","0.0-66.0","AQXEQDTAU4MJ4","","","","","1","","","","","","","","","","","","","","","","","","","","","",""
"null","","image-button-response","69","573295","0.0-67.0","AQXEQDTAU4MJ4","img_art/14.jpg","null","","","","","","","","","","","","","","","","","","","","","","","","",""
"9198","","image-button-response","70","582498","0.0-68.0","AQXEQDTAU4MJ4","img_art/14.jpg","3","","","","","","","","","","","","","","","","","","","","","","","","",""
"5229","","image-button-response","71","587736","0.0-69.0-0.0","AQXEQDTAU4MJ4","img_art/14.jpg","5","","","","","","","","","","","","","","","","","","","","","","","","",""
"3796","","image-button-response","72","591542","0.0-70.0-0.0","AQXEQDTAU4MJ4","img_art/14.jpg","1","","","","","","","","","","","","","","","","","","","","","","","","",""
"null","","html-keyboard-response","73","592049","0.0-71.0","AQXEQDTAU4MJ4","<p style=""font-size: 48px;"">+</p>","","","","","null","allTrialResponses","500","1","4","img_art/14.jpg","1","interesting, I feel like it has potential to be something creative","Elizabeth,Morgan,Diana,Anna,Alexis,Andrea","Love the abstractness of this painting,39,20,20","Angled, colored, boxy.,10,380,20","This piece feels inviting. It's like opening up the pages of your favorite book for the first time.,26,380,20","It reminds me of a tree in the desert.,15,300,20","Don't like the colors on this. Too simple,-20,100,20","Cute little plant.,15,240,20","Anna","It reminds me of a tree in the desert.,15,300,20","Andrea","Cute little plant.,15,240,20","Morgan","Angled, colored, boxy.,10,380,20","4"
"44664","","survey-text","74","636727","0.0-72.0-0.0","AQXEQDTAU4MJ4","","","","{""Q0"":""looks like long fingers that look like hearts or pretzels. I like it""}","","","","","","","","","","","","","","","","","","","","","","",""
"3682.300000000745","","image-slider-response","75","640416","0.0-73.0","AQXEQDTAU4MJ4","","","","","20","","","","","","","","","","","","","","","","","","","","","",""
"null","","image-button-response","76","645422","0.0-74.0","AQXEQDTAU4MJ4","img_art/4.jpg","null","","","","","","","","","","","","","","","","","","","","","","","","",""
"9227","","image-button-response","77","654655","0.0-75.0","AQXEQDTAU4MJ4","img_art/4.jpg","1","","","","","","","","","","","","","","","","","","","","","","","","",""
"857","","image-button-response","78","655520","0.0-76.0-0.0","AQXEQDTAU4MJ4","img_art/4.jpg","3","","","","","","","","","","","","","","","","","","","","","","","","",""
"8963","","image-button-response","79","664493","0.0-77.0-0.0","AQXEQDTAU4MJ4","img_art/4.jpg","5","","","","","","","","","","","","","","","","","","","","","","","","",""
"null","","html-keyboard-response","80","664997","0.0-78.0","AQXEQDTAU4MJ4","<p style=""font-size: 48px;"">+</p>","","","","","null","allTrialResponses","500","1","5","img_art/4.jpg","20","looks like long fingers that look like hearts or pretzels. I like it","Tiffany,Morgan,Maria,Anna,Amber,Andrea","The sickly looking colors make me feel very uncomfortable.,-35,360,20","Pretzel noodles.,7,380,20","no strong feelings about this one,2,120,20","It doesn't make me feel anything it just looks like a kid did it.,-30,300,20","I like the bold style.,10,200,20","I think it speaks to familial closeness but the tonality is offputting to me.,-10,240,20","Morgan","Pretzel noodles.,7,380,20","Anna","It doesn't make me feel anything it just looks like a kid did it.,-30,300,20","Andrea","I think it speaks to familial closeness but the tonality is offputting to me.,-10,240,20","4"
"4101","","survey-text","81","669131","0.0-79.0-0.0","AQXEQDTAU4MJ4","","","","{""Q0"":""sky""}","","","","","","","","","","","","","","","","","","","","","","",""
"55819","","survey-text","82","724954","0.0-80.0-0.0","AQXEQDTAU4MJ4","","","","{""Q0"":""this one looks like it took a lot of time and effort. I like the waterfall (if that's what it is)""}","","","","","","","","","","","","","","","","","","","","","","",""
"3431.100000000559","","image-slider-response","83","728390","0.0-81.0","AQXEQDTAU4MJ4","","","","","29","","","","","","","","","","","","","","","","","","","","","",""
"null","","image-button-response","84","733395","0.0-82.0","AQXEQDTAU4MJ4","img_art/24.jpg","null","","","","","","","","","","","","","","","","","","","","","","","","",""
"8201","","image-button-response","85","741602","0.0-83.0","AQXEQDTAU4MJ4","img_art/24.jpg","5","","","","","","","","","","","","","","","","","","","","","","","","",""
"3938","","image-button-response","86","745546","0.0-84.0-0.0","AQXEQDTAU4MJ4","img_art/24.jpg","3","","","","","","","","","","","","","","","","","","","","","","","","",""
"7211","","image-button-response","87","752764","0.0-85.0-0.0","AQXEQDTAU4MJ4","img_art/24.jpg","0","","","","","","","","","","","","","","","","","","","","","","","","",""
"null","","html-keyboard-response","88","754269","0.0-86.0","AQXEQDTAU4MJ4","<p style=""font-size: 48px;"">+</p>","","","","","null","allTrialResponses","1500","1","6","img_art/24.jpg","29","this one looks like it took a lot of time and effort. I like the waterfall (if that's what it is)","Gabrielle,Morgan,Kimberly,Anna,Madison,Andrea","flowing water part is good, some of the rest is ok but dark,14,160,20","Water through the fruit.,15,380,20","It just feels a little bland for me,-23,260,20","I like how it evokes the feeling of being in a forest. The colors are pretty,31,300,20","Exceedingly garish,-19,60,20","Waterfall, and I love the coloring.,48,240,20","Andrea","Waterfall, and I love the coloring.,48,240,20","Anna","I like how it evokes the feeling of being in a forest. The colors are pretty,31,300,20","Gabrielle","flowing water part is good, some of the rest is ok but dark,14,160,20","4"
"24459","","survey-text","89","778739","0.0-87.0-0.0","AQXEQDTAU4MJ4","","","","{""Q0"":""looks like highways on a gloomy day""}","","","","","","","","","","","","","","","","","","","","","","",""
"3352","","image-slider-response","90","782104","0.0-88.0","AQXEQDTAU4MJ4","","","","","15","","","","","","","","","","","","","","","","","","","","","",""
"null","","image-button-response","91","787110","0.0-89.0","AQXEQDTAU4MJ4","img_art/11.jpg","null","","","","","","","","","","","","","","","","","","","","","","","","",""
"11954","","image-button-response","92","799070","0.0-90.0","AQXEQDTAU4MJ4","img_art/11.jpg","2","","","","","","","","","","","","","","","","","","","","","","","","",""
"1443","","image-button-response","93","800520","0.0-91.0-0.0","AQXEQDTAU4MJ4","img_art/11.jpg","1","","","","","","","","","","","","","","","","","","","","","","","","",""
"1799","","image-button-response","94","802330","0.0-92.0-0.0","AQXEQDTAU4MJ4","img_art/11.jpg","0","","","","","","","","","","","","","","","","","","","","","","","","",""
"null","","html-keyboard-response","95","802834","0.0-93.0","AQXEQDTAU4MJ4","<p style=""font-size: 48px;"">+</p>","","","","","null","allTrialResponses","500","1","7","img_art/11.jpg","15","looks like highways on a gloomy day","Gabrielle,Sara,Victoria,Anna,Brittany,Andrea","I like this one mostly a good combination of colors and light and dark,12,160,20","Looks sad but clean,31,160,20","reminds me of a rainy day in the city,32,400,20","It makes me think of a coastal sea town.,50,300,20","It reminds me of telephone wires.,1,40,20","My initial thought was roller coasters but I see ship masts on a cloudy day too.,35,240,20","Victoria","reminds me of a rainy day in the city,32,400,20","Sara","Looks sad but clean,31,160,20","Gabrielle","I like this one mostly a good combination of colors and light and dark,12,160,20","4"
"14239","","survey-text","96","817083","0.0-94.0-0.0","AQXEQDTAU4MJ4","","","","{""Q0"":""looks scary""}","","","","","","","","","","","","","","","","","","","","","","",""
"3742.899999999441","","image-slider-response","97","820831","0.0-95.0","AQXEQDTAU4MJ4","","","","","-14","","","","","","","","","","","","","","","","","","","","","",""
"null","","image-button-response","98","825837","0.0-96.0","AQXEQDTAU4MJ4","img_art/29.jpg","null","","","","","","","","","","","","","","","","","","","","","","","","",""
"16528","","image-button-response","99","842372","0.0-97.0","AQXEQDTAU4MJ4","img_art/29.jpg","3","","","","","","","","","","","","","","","","","","","","","","","","",""
"3313","","image-button-response","100","845691","0.0-98.0-0.0","AQXEQDTAU4MJ4","img_art/29.jpg","2","","","","","","","","","","","","","","","","","","","","","","","","",""
"807","","image-button-response","101","846506","0.0-99.0-0.0","AQXEQDTAU4MJ4","img_art/29.jpg","5","","","","","","","","","","","","","","","","","","","","","","","","",""
"null","","html-keyboard-response","102","847010","0.0-100.0","AQXEQDTAU4MJ4","<p style=""font-size: 48px;"">+</p>","","","","","null","allTrialResponses","500","1","8","img_art/29.jpg","-14","looks scary","Gabrielle,Sara,Victoria,Caroline,Amanda,Paige","it's OK, no clue to what's going on but good use of light and dark,4,160,20","I don't like the black,-50,160,20","makes me think of destruction,-20,400,20","Depressing and with that big red x on it just makes me not like it.,-33,100,20","Once again, very modern, activists will love,27,180,20","unhappy. Looking at this all the time would depress me.,-11,60,20","Caroline","Depressing and with that big red x on it just makes me not like it.,-33,100,20","Victoria","makes me think of destruction,-20,400,20","Paige","unhappy. Looking at this all the time would depress me.,-11,60,20","4"
"22645","","survey-text","103","869671","0.0-101.0-0.0","AQXEQDTAU4MJ4","","","","{""Q0"":""looks like a brick wall with graffiti ""}","","","","","","","","","","","","","","","","","","","","","","",""
"3713","","image-slider-response","104","873398","0.0-102.0","AQXEQDTAU4MJ4","","","","","-35","","","","","","","","","","","","","","","","","","","","","",""
"null","","image-button-response","105","878406","0.0-103.0","AQXEQDTAU4MJ4","img_art/22.jpg","null","","","","","","","","","","","","","","","","","","","","","","","","",""
"10268","","image-button-response","106","888679","0.0-104.0","AQXEQDTAU4MJ4","img_art/22.jpg","0","","","","","","","","","","","","","","","","","","","","","","","","",""
"11609","","image-button-response","107","900296","0.0-105.0-0.0","AQXEQDTAU4MJ4","img_art/22.jpg","3","","","","","","","","","","","","","","","","","","","","","","","","",""
"4472","","image-button-response","108","904777","0.0-106.0-0.0","AQXEQDTAU4MJ4","img_art/22.jpg","4","","","","","","","","","","","","","","","","","","","","","","","","",""
"null","","html-keyboard-response","109","905287","0.0-107.0","AQXEQDTAU4MJ4","<p style=""font-size: 48px;"">+</p>","","","","","null","allTrialResponses","500","1","9","img_art/22.jpg","-35","looks like a brick wall with graffiti ","Sierra,Alicia,Victoria,Caroline,Alexandra,Paige","colorful. but not much happening,1,260,20","Could be interpreted so many ways, bold. I like it.,29,120,20","love how the colors blend,42,400,20","Felt blah. Bunch of nothingness,-42,100,20","The colors in this picture are nice.,32,60,20","Happy. I like to colors,33,60,20","Sierra","colorful. but not much happening,1,260,20","Caroline","Felt blah. Bunch of nothingness,-42,100,20","Alexandra","The colors in this picture are nice.,32,60,20","4"
"32548","","survey-text","110","937851","0.0-108.0-0.0","AQXEQDTAU4MJ4","","","","{""Q0"":""could have many different meanings. Kinda creepy""}","","","","","","","","","","","","","","","","","","","","","","",""
"3103.199999999255","","image-slider-response","111","940958","0.0-109.0","AQXEQDTAU4MJ4","","","","","3","","","","","","","","","","","","","","","","","","","","","",""
"null","","image-button-response","112","945964","0.0-110.0","AQXEQDTAU4MJ4","img_art/16.jpg","null","","","","","","","","","","","","","","","","","","","","","","","","",""
"9356","","image-button-response","113","955325","0.0-111.0","AQXEQDTAU4MJ4","img_art/16.jpg","5","","","","","","","","","","","","","","","","","","","","","","","","",""
"9870","","image-button-response","114","965202","0.0-112.0-0.0","AQXEQDTAU4MJ4","img_art/16.jpg","1","","","","","","","","","","","","","","","","","","","","","","","","",""
"5871","","image-button-response","115","971085","0.0-113.0-0.0","AQXEQDTAU4MJ4","img_art/16.jpg","0","","","","","","","","","","","","","","","","","","","","","","","","",""
"null","","html-keyboard-response","116","972589","0.0-114.0","AQXEQDTAU4MJ4","<p style=""font-size: 48px;"">+</p>","","","","","null","allTrialResponses","1500","1","10","img_art/16.jpg","3","could have many different meanings. Kinda creepy","Sierra,Angelica,Hailey,Caroline,Alexandra,Claire","it looks psychotic,-31,260,20","This is creepy and puerile.,-45,280,20","cute and warm. i like the bear,15,200,20","Did not like at all. I think something sinister going on in the background and the bear a diversion,-50,100,20","This is weird and creepy.,-40,60,20","the materials used are interesting,30,260,20","Claire","the materials used are interesting,30,260,20","Angelica","This is creepy and puerile.,-45,280,20","Sierra","it looks psychotic,-31,260,20","4"
"4173","","survey-text","117","976782","0.0-115.0-0.0","AQXEQDTAU4MJ4","","","","{""Q0"":""our""}","","","","","","","","","","","","","","","","","","","","","","",""
"19163","","survey-text","118","995950","0.0-116.0-0.0","AQXEQDTAU4MJ4","","","","{""Q0"":""i like the two different patterns.""}","","","","","","","","","","","","","","","","","","","","","","",""
"3342.7000000001863","","image-slider-response","119","999298","0.0-117.0","AQXEQDTAU4MJ4","","","","","13","","","","","","","","","","","","","","","","","","","","","",""
"null","","image-button-response","120","1004308","0.0-118.0","AQXEQDTAU4MJ4","img_art/12.jpg","null","","","","","","","","","","","","","","","","","","","","","","","","",""
"5624","","image-button-response","121","1009939","0.0-119.0","AQXEQDTAU4MJ4","img_art/12.jpg","4","","","","","","","","","","","","","","","","","","","","","","","","",""
"424","","image-button-response","122","1010372","0.0-120.0-0.0","AQXEQDTAU4MJ4","img_art/12.jpg","5","","","","","","","","","","","","","","","","","","","","","","","","",""
"777","","image-button-response","123","1011155","0.0-121.0-0.0","AQXEQDTAU4MJ4","img_art/12.jpg","2","","","","","","","","","","","","","","","","","","","","","","","","",""
"null","","html-keyboard-response","124","1012159","0.0-122.0","AQXEQDTAU4MJ4","<p style=""font-size: 48px;"">+</p>","","","","","null","allTrialResponses","1000","1","11","img_art/12.jpg","13","i like the two different patterns.","Sierra,Angelica,Destiny,Ashley,Madeline,Claire","i dont see the point.,-19,260,20","It's strange looking and unappealing.,-4,280,20","giving me major endless summer vibes,26,360,20","It's boxy, cubist immpressionism? Very ncie.,32,320,20","Love the shapes here,12,40,20","i like the repetition,30,260,20","Madeline","Love the shapes here,12,40,20","Claire","i like the repetition,30,260,20","Destiny","giving me major endless summer vibes,26,360,20","4"
"26746","","survey-text","125","1038927","0.0-123.0-0.0","AQXEQDTAU4MJ4","","","","{""Q0"":""this one is fun to look at. looks like people dancing?""}","","","","","","","","","","","","","","","","","","","","","","",""
"2527.4000000003725","","image-slider-response","126","1041459","0.0-124.0","AQXEQDTAU4MJ4","","","","","14","","","","","","","","","","","","","","","","","","","","","",""
"null","","image-button-response","127","1046465","0.0-125.0","AQXEQDTAU4MJ4","img_art/23.jpg","null","","","","","","","","","","","","","","","","","","","","","","","","",""
"14691","","image-button-response","128","1061163","0.0-126.0","AQXEQDTAU4MJ4","img_art/23.jpg","3","","","","","","","","","","","","","","","","","","","","","","","","",""
"1884","","image-button-response","129","1063052","0.0-127.0-0.0","AQXEQDTAU4MJ4","img_art/23.jpg","2","","","","","","","","","","","","","","","","","","","","","","","","",""
"5389","","image-button-response","130","1068448","0.0-128.0-0.0","AQXEQDTAU4MJ4","img_art/23.jpg","5","","","","","","","","","","","","","","","","","","","","","","","","",""
"null","","html-keyboard-response","131","1069962","0.0-129.0","AQXEQDTAU4MJ4","<p style=""font-size: 48px;"">+</p>","","","","","null","allTrialResponses","1500","1","12","img_art/23.jpg","14","this one is fun to look at. looks like people dancing?","Danielle,Melissa,Destiny,Isabella,Madeline,Claire","While I don't normally enjoy these color schemes all together, I kind of like this one,10,340,20","do not like color splatters or sharp silhouettes, feels tacky,-34,240,20","This looks like the cover art for a scene band,-29,360,20","Love the line in the middle separating the two dark sides,50,280,20","background is great but the white is a bit weird,3,40,20","the pattern is pleasing to the eye,28,260,20","Isabella","Love the line in the middle separating the two dark sides,50,280,20","Destiny","This looks like the cover art for a scene band,-29,360,20","Claire","the pattern is pleasing to the eye,28,260,20","4"
"12991","","survey-text","132","1082971","0.0-130.0-0.0","AQXEQDTAU4MJ4","","","","{""Q0"":""i like the colors""}","","","","","","","","","","","","","","","","","","","","","","",""
"2991.199999999255","","image-slider-response","133","1085967","0.0-131.0","AQXEQDTAU4MJ4","","","","","5","","","","","","","","","","","","","","","","","","","","","",""
"null","","image-button-response","134","1090977","0.0-132.0","AQXEQDTAU4MJ4","img_art/13.jpg","null","","","","","","","","","","","","","","","","","","","","","","","","",""
"13864","","image-button-response","135","1104846","0.0-133.0","AQXEQDTAU4MJ4","img_art/13.jpg","3","","","","","","","","","","","","","","","","","","","","","","","","",""
"2371","","image-button-response","136","1107225","0.0-134.0-0.0","AQXEQDTAU4MJ4","img_art/13.jpg","5","","","","","","","","","","","","","","","","","","","","","","","","",""
"3371","","image-button-response","137","1110606","0.0-135.0-0.0","AQXEQDTAU4MJ4","img_art/13.jpg","2","","","","","","","","","","","","","","","","","","","","","","","","",""
"null","","html-keyboard-response","138","1111111","0.0-136.0","AQXEQDTAU4MJ4","<p style=""font-size: 48px;"">+</p>","","","","","null","allTrialResponses","500","1","13","img_art/13.jpg","5","i like the colors","Grace,Emma,Destiny,Isabella,Caitlin,Claire","Love the colors, love the abstractness, love this Jackson Pollock type painting.,48,180,20","It's pretty ...........,41,60,20","so simple and stupid this looks like what I did to my cousins wall when we repainted it for her 13th bday,0,360,20","Rain drops on a window,35,280,20","Simple and in my favorite color. I actually like this one.,40,80,20","love the colors and splatters,44,260,20","Isabella","Rain drops on a window,35,280,20","Claire","love the colors and splatters,44,260,20","Destiny","so simple and stupid this looks like what I did to my cousins wall when we repainted it for her 13th bday,0,360,20","4"
"15382","","survey-text","139","1126510","0.0-137.0-0.0","AQXEQDTAU4MJ4","","","","{""Q0"":""its too smudgy looking""}","","","","","","","","","","","","","","","","","","","","","","",""
"2974.5999999996275","","image-slider-response","140","1129490","0.0-138.0","AQXEQDTAU4MJ4","","","","","-18","","","","","","","","","","","","","","","","","","","","","",""
"null","","image-button-response","141","1134496","0.0-139.0","AQXEQDTAU4MJ4","img_art/20.jpg","null","","","","","","","","","","","","","","","","","","","","","","","","",""
"10234","","image-button-response","142","1144742","0.0-140.0","AQXEQDTAU4MJ4","img_art/20.jpg","3","","","","","","","","","","","","","","","","","","","","","","","","",""
"1589","","image-button-response","143","1146343","0.0-141.0-0.0","AQXEQDTAU4MJ4","img_art/20.jpg","2","","","","","","","","","","","","","","","","","","","","","","","","",""
"1612","","image-button-response","144","1147966","0.0-142.0-0.0","AQXEQDTAU4MJ4","img_art/20.jpg","1","","","","","","","","","","","","","","","","","","","","","","","","",""
"null","","html-keyboard-response","145","1149470","0.0-143.0","AQXEQDTAU4MJ4","<p style=""font-size: 48px;"">+</p>","","","","","null","allTrialResponses","1500","1","14","img_art/20.jpg","-18","its too smudgy looking","Taylor,Leah,Destiny,Isabella,Shelby,Claire","I just love this painting,47,340,20","A sad past town, pollution, guess I like happier scenes,-30,360,20","truck? train? dead cow? plane?,10,360,20","Feels like a town destroyed,-19,280,20","Makes me think if a car crash or some sort of disaster,-20,240,20","reminds me of Salvadore Dali,24,260,20","Isabella","Feels like a town destroyed,-19,280,20","Destiny","truck? train? dead cow? plane?,10,360,20","Leah","A sad past town, pollution, guess I like happier scenes,-30,360,20","4"
"17666","","survey-text","146","1167147","0.0-144.0-0.0","AQXEQDTAU4MJ4","","","","{""Q0"":""gives me serial killer vibes""}","","","","","","","","","","","","","","","","","","","","","","",""
"3881","","image-slider-response","147","1171033","0.0-145.0","AQXEQDTAU4MJ4","","","","","-41","","","","","","","","","","","","","","","","","","","","","",""
"null","","image-button-response","148","1176038","0.0-146.0","AQXEQDTAU4MJ4","img_art/3.jpg","null","","","","","","","","","","","","","","","","","","","","","","","","",""
"13103","","image-button-response","149","1189146","0.0-147.0","AQXEQDTAU4MJ4","img_art/3.jpg","4","","","","","","","","","","","","","","","","","","","","","","","","",""
"1348","","image-button-response","150","1190501","0.0-148.0-0.0","AQXEQDTAU4MJ4","img_art/3.jpg","3","","","","","","","","","","","","","","","","","","","","","","","","",""
"1046","","image-button-response","151","1191555","0.0-149.0-0.0","AQXEQDTAU4MJ4","img_art/3.jpg","0","","","","","","","","","","","","","","","","","","","","","","","","",""
"null","","html-keyboard-response","152","1192558","0.0-150.0","AQXEQDTAU4MJ4","<p style=""font-size: 48px;"">+</p>","","","","","null","allTrialResponses","1000","1","15","img_art/3.jpg","-41","gives me serial killer vibes","Rebecca,Leah,Destiny,Isabella,Michaela,Erin","sorry do not understand,-26,100,20","Scratchy scrawly all one color, looks like a mistake,-28,360,20","im just getting more agitated and less appreciative of art. I have absolutely no scale to base on,-34,360,20","Too much red or blood,-28,280,20","It looks like someone took a red sharpie and just scribbled angrily,-20,260,20","Shapes are interesting but color is overwhelming,5,120,20","Michaela","It looks like someone took a red sharpie and just scribbled angrily,-20,260,20","Isabella","Too much red or blood,-28,280,20","Rebecca","sorry do not understand,-26,100,20","4"
"5371","","survey-text","153","1197961","0.0-151.0-0.0","AQXEQDTAU4MJ4","","","","{""Q0"":""course""}","","","","","","","","","","","","","","","","","","","","","","",""
"28636","","survey-text","154","1226602","0.0-152.0-0.0","AQXEQDTAU4MJ4","","","","{""Q0"":""i'm not sure what this is suppose to be. looks messy""}","","","","","","","","","","","","","","","","","","","","","","",""
"4333.5999999996275","","image-slider-response","155","1230940","0.0-153.0","AQXEQDTAU4MJ4","","","","","-47","","","","","","","","","","","","","","","","","","","","","",""
"null","","image-button-response","156","1235947","0.0-154.0","AQXEQDTAU4MJ4","img_art/2.jpg","null","","","","","","","","","","","","","","","","","","","","","","","","",""
"14448","","image-button-response","157","1250401","0.0-155.0","AQXEQDTAU4MJ4","img_art/2.jpg","5","","","","","","","","","","","","","","","","","","","","","","","","",""
"1452","","image-button-response","158","1251858","0.0-156.0-0.0","AQXEQDTAU4MJ4","img_art/2.jpg","0","","","","","","","","","","","","","","","","","","","","","","","","",""
"10479","","image-button-response","159","1262348","0.0-157.0-0.0","AQXEQDTAU4MJ4","img_art/2.jpg","3","","","","","","","","","","","","","","","","","","","","","","","","",""
"null","","html-keyboard-response","160","1263354","0.0-158.0","AQXEQDTAU4MJ4","<p style=""font-size: 48px;"">+</p>","","","","","null","allTrialResponses","1000","1","16","img_art/2.jpg","-47","i'm not sure what this is suppose to be. looks messy","Rebecca,Olivia,Heather,Isabella,Michaela,Savannah","do not understand,-21,100,20","i liked the bright colors,13,40,20","i like the colors and again can make out my own picture,38,260,20","Feels like a playground or park vibe,27,280,20","My immediate reaction was it looked like a class but then I saw a smile in the middle,11,260,20","Very gross colors. What were they thinking?,-47,200,20","Savannah","Very gross colors. What were they thinking?,-47,200,20","Rebecca","do not understand,-21,100,20","Isabella","Feels like a playground or park vibe,27,280,20","4"
"43546","","survey-text","161","1306947","0.0-159.0-0.0","AQXEQDTAU4MJ4","","","","{""Q0"":""looks like a ghost. I don't really like the colors""}","","","","","","","","","","","","","","","","","","","","","","",""
"3902.399999999441","","image-slider-response","162","1310857","0.0-160.0","AQXEQDTAU4MJ4","","","","","-9","","","","","","","","","","","","","","","","","","","","","",""
"null","","image-button-response","163","1315865","0.0-161.0","AQXEQDTAU4MJ4","img_art/28.jpg","null","","","","","","","","","","","","","","","","","","","","","","","","",""
"18983","","image-button-response","164","1334853","0.0-162.0","AQXEQDTAU4MJ4","img_art/28.jpg","4","","","","","","","","","","","","","","","","","","","","","","","","",""
"1433","","image-button-response","165","1336294","0.0-163.0-0.0","AQXEQDTAU4MJ4","img_art/28.jpg","5","","","","","","","","","","","","","","","","","","","","","","","","",""
"554","","image-button-response","166","1336856","0.0-164.0-0.0","AQXEQDTAU4MJ4","img_art/28.jpg","2","","","","","","","","","","","","","","","","","","","","","","","","",""
"null","","html-keyboard-response","167","1337361","0.0-165.0","AQXEQDTAU4MJ4","<p style=""font-size: 48px;"">+</p>","","","","","null","allTrialResponses","500","1","17","img_art/28.jpg","-9","looks like a ghost. I don't really like the colors","Rebecca,Samantha,Chelsea,Isabella,Kaitlin,Savannah","the color scheme is very well matched but i just didn't like it,-6,100,20","Interesting and weird. Perfect conversational piece,33,140,20","It is too messy.,-38,180,20","This is also something I would see in a serious but safe environment,14,280,20","i'm not too impressed with this one.,-10,60,20","White and dark balance is way off- Seems dull.,-33,200,20","Kaitlin","i'm not too impressed with this one.,-10,60,20","Savannah","White and dark balance is way off- Seems dull.,-33,200,20","Chelsea","It is too messy.,-38,180,20","4"
"54591","","survey-text","168","1391962","0.0-166.0-0.0","AQXEQDTAU4MJ4","","","","{""Q0"":""pointless and not interesting""}","","","","","","","","","","","","","","","","","","","","","","",""
"3584.5","","image-slider-response","169","1395552","0.0-167.0","AQXEQDTAU4MJ4","","","","","-46","","","","","","","","","","","","","","","","","","","","","",""
"null","","image-button-response","170","1400559","0.0-168.0","AQXEQDTAU4MJ4","img_art/15.jpg","null","","","","","","","","","","","","","","","","","","","","","","","","",""
"10798","","image-button-response","171","1411365","0.0-169.0","AQXEQDTAU4MJ4","img_art/15.jpg","3","","","","","","","","","","","","","","","","","","","","","","","","",""
"1995","","image-button-response","172","1413369","0.0-170.0-0.0","AQXEQDTAU4MJ4","img_art/15.jpg","1","","","","","","","","","","","","","","","","","","","","","","","","",""
"2731","","image-button-response","173","1416121","0.0-171.0-0.0","AQXEQDTAU4MJ4","img_art/15.jpg","2","","","","","","","","","","","","","","","","","","","","","","","","",""
"null","","html-keyboard-response","174","1417129","0.0-172.0","AQXEQDTAU4MJ4","<p style=""font-size: 48px;"">+</p>","","","","","null","allTrialResponses","1000","1","18","img_art/15.jpg","-46","pointless and not interesting","Jennifer,Natalie,Chelsea,Molly,Kaitlin,Savannah","This piece isn't particularly attractive, but it's not ugly either.,1,380,20","my response to the picture is that I dont know what I am looking at,-25,400,20","The colors are too busy.,-39,180,20","I can't see the meaning of the painting.,-30,340,20","This one seems a bit frightening,-19,60,20","Love the accent colors in this piece!,20,200,20","Molly","I can't see the meaning of the painting.,-30,340,20","Natalie","my response to the picture is that I dont know what I am looking at,-25,400,20","Chelsea","The colors are too busy.,-39,180,20","4"
"103402","","survey-text","175","1520560","0.0-173.0-0.0","AQXEQDTAU4MJ4","","","","{""Q0"":""not too sure what it's suppose to be but I don't hate it""}","","","","","","","","","","","","","","","","","","","","","","",""
"3119.5","","image-slider-response","176","1523685","0.0-174.0","AQXEQDTAU4MJ4","","","","","-5","","","","","","","","","","","","","","","","","","","","","",""
"null","","image-button-response","177","1528692","0.0-175.0","AQXEQDTAU4MJ4","img_art/26.jpg","null","","","","","","","","","","","","","","","","","","","","","","","","",""
"9132","","image-button-response","178","1537832","0.0-176.0","AQXEQDTAU4MJ4","img_art/26.jpg","5","","","","","","","","","","","","","","","","","","","","","","","","",""
"4431","","image-button-response","179","1542270","0.0-177.0-0.0","AQXEQDTAU4MJ4","img_art/26.jpg","3","","","","","","","","","","","","","","","","","","","","","","","","",""
"2111","","image-button-response","180","1544395","0.0-178.0-0.0","AQXEQDTAU4MJ4","img_art/26.jpg","1","","","","","","","","","","","","","","","","","","","","","","","","",""
"null","","html-keyboard-response","181","1545899","0.0-179.0","AQXEQDTAU4MJ4","<p style=""font-size: 48px;"">+</p>","","","","","null","allTrialResponses","1500","1","19","img_art/26.jpg","-5","not too sure what it's suppose to be but I don't hate it","Amy,Natalie,Chelsea,Molly,Katelyn,Rachel","The feeling that I am looking at the world through a dingy filter makes this unpleasant for me.,-20,220,20","picture looks alright,1,400,20","I wish it were more pastel but I think it is relaxing to look at.,30,180,20","Nothing to say.,0,340,20","Looks bland and boring,-5,100,20","Pretty trees and bushes around fancy brown stones. I like the soft nature.,20,80,20","Rachel","Pretty trees and bushes around fancy brown stones. I like the soft nature.,20,80,20","Molly","Nothing to say.,0,340,20","Natalie","picture looks alright,1,400,20","4"
"15530","","survey-text","182","1561443","0.0-180.0-0.0","AQXEQDTAU4MJ4","","","","{""Q0"":""i like this one and the colors.""}","","","","","","","","","","","","","","","","","","","","","","",""
"3582.4000000003725","","image-slider-response","183","1565032","0.0-181.0","AQXEQDTAU4MJ4","","","","","20","","","","","","","","","","","","","","","","","","","","","",""
"null","","image-button-response","184","1570041","0.0-182.0","AQXEQDTAU4MJ4","img_art/17.jpg","null","","","","","","","","","","","","","","","","","","","","","","","","",""
"12959","","image-button-response","185","1583004","0.0-183.0","AQXEQDTAU4MJ4","img_art/17.jpg","5","","","","","","","","","","","","","","","","","","","","","","","","",""
"5266","","image-button-response","186","1588277","0.0-184.0-0.0","AQXEQDTAU4MJ4","img_art/17.jpg","4","","","","","","","","","","","","","","","","","","","","","","","","",""
"1912","","image-button-response","187","1590202","0.0-185.0-0.0","AQXEQDTAU4MJ4","img_art/17.jpg","2","","","","","","","","","","","","","","","","","","","","","","","","",""
"null","","html-keyboard-response","188","1591719","0.0-186.0","AQXEQDTAU4MJ4","<p style=""font-size: 48px;"">+</p>","","","","","null","allTrialResponses","1500","1","20","img_art/17.jpg","20","i like this one and the colors.","Vanessa,Natalie,Kelly,Molly,Breanna,Rachel","I want to know more about this picture and where it leads if you could get inside it.,27,380,20","my response to the picture is that it looks beautiful,27,400,20","I really like this, especially the tree.,23,220,20","Wow, I haven't seen anything better than this.,40,340,20","Very cool, makes me feel calm,43,380,20","Reminds me of a beautiful tree growing in a courtyard. I like the light and airy technique used.,34,80,20","Rachel","Reminds me of a beautiful tree growing in a courtyard. I like the light and airy technique used.,34,80,20","Breanna","Very cool, makes me feel calm,43,380,20","Kelly","I really like this, especially the tree.,23,220,20","4"
"2919","","survey-text","189","1594662","0.0-187.0-0.0","AQXEQDTAU4MJ4","","","","{""Q0"":""we""}","","","","","","","","","","","","","","","","","","","","","","",""
"16945","","survey-text","190","1611610","0.0-188.0-0.0","AQXEQDTAU4MJ4","","","","{""Q0"":""i don't like the color combo. too messy""}","","","","","","","","","","","","","","","","","","","","","","",""
"2794","","image-slider-response","191","1614412","0.0-189.0","AQXEQDTAU4MJ4","","","","","-38","","","","","","","","","","","","","","","","","","","","","",""
"null","","image-button-response","192","1619422","0.0-190.0","AQXEQDTAU4MJ4","img_art/1.jpg","null","","","","","","","","","","","","","","","","","","","","","","","","",""
"4976","","image-button-response","193","1624406","0.0-191.0","AQXEQDTAU4MJ4","img_art/1.jpg","4","","","","","","","","","","","","","","","","","","","","","","","","",""
"745","","image-button-response","194","1625159","0.0-192.0-0.0","AQXEQDTAU4MJ4","img_art/1.jpg","5","","","","","","","","","","","","","","","","","","","","","","","","",""
"1816","","image-button-response","195","1626985","0.0-193.0-0.0","AQXEQDTAU4MJ4","img_art/1.jpg","0","","","","","","","","","","","","","","","","","","","","","","","","",""
"null","","html-keyboard-response","196","1627989","0.0-194.0","AQXEQDTAU4MJ4","<p style=""font-size: 48px;"">+</p>","","","","","null","allTrialResponses","1000","1","21","img_art/1.jpg","-38","i don't like the color combo. too messy","Kylie,Alyssa,Kelly,Meghan,Breanna,Rachel","I don't know how I feel about this,1,300,20","Its okay,not great.,1,160,20","I love colorful photos and I like this one a lot.,25,220,20","good colors and contrast,31,220,20","Makes me feel confused,-6,380,20","While I like the colors, I find nothing interesting or thought provoking about it.,10,80,20","Breanna","Makes me feel confused,-6,380,20","Rachel","While I like the colors, I find nothing interesting or thought provoking about it.,10,80,20","Kylie","I don't know how I feel about this,1,300,20","4"
"43416","","survey-text","197","1671431","0.0-195.0-0.0","AQXEQDTAU4MJ4","","","","{""Q0"":""looks like it could be a storm and sunset""}","","","","","","","","","","","","","","","","","","","","","","",""
"4362","","image-slider-response","198","1675798","0.0-196.0","AQXEQDTAU4MJ4","","","","","-10","","","","","","","","","","","","","","","","","","","","","",""
"null","","image-button-response","199","1680805","0.0-197.0","AQXEQDTAU4MJ4","img_art/21.jpg","null","","","","","","","","","","","","","","","","","","","","","","","","",""
"25273","","image-button-response","200","1706090","0.0-198.0","AQXEQDTAU4MJ4","img_art/21.jpg","5","","","","","","","","","","","","","","","","","","","","","","","","",""
"2998","","image-button-response","201","1709096","0.0-199.0-0.0","AQXEQDTAU4MJ4","img_art/21.jpg","2","","","","","","","","","","","","","","","","","","","","","","","","",""
"7916","","image-button-response","202","1717018","0.0-200.0-0.0","AQXEQDTAU4MJ4","img_art/21.jpg","3","","","","","","","","","","","","","","","","","","","","","","","","",""
"null","","html-keyboard-response","203","1718521","0.0-201.0","AQXEQDTAU4MJ4","<p style=""font-size: 48px;"">+</p>","","","","","null","allTrialResponses","1500","1","22","img_art/21.jpg","-10","looks like it could be a storm and sunset","Kylie,Mariah,Jamie,Lauren,Breanna,Rachel","Makes me think of a battleship targeting a beautiful mountainside,0,300,20","Motion, the light marks in the lower right corner are very appealing.,15,140,20","Contrast of fire and water looks cool,20,320,20","I like how the piece has the possibility of depicting some type of story.,30,340,20","Can't understand what it is,-27,380,20","Looks like a body of water during a sunset. I like this piece.,21,80,20","Rachel","Looks like a body of water during a sunset. I like this piece.,21,80,20","Jamie","Contrast of fire and water looks cool,20,320,20","Lauren","I like how the piece has the possibility of depicting some type of story.,30,340,20","4"
"25275","","survey-text","204","1743814","0.0-202.0-0.0","AQXEQDTAU4MJ4","","","","{""Q0"":""looks like the desert ground""}","","","","","","","","","","","","","","","","","","","","","","",""
"2738.600000000559","","image-slider-response","205","1746561","0.0-203.0","AQXEQDTAU4MJ4","","","","","-8","","","","","","","","","","","","","","","","","","","","","",""
"null","","image-button-response","206","1751568","0.0-204.0","AQXEQDTAU4MJ4","img_art/7.jpg","null","","","","","","","","","","","","","","","","","","","","","","","","",""
"9772","","image-button-response","207","1761348","0.0-205.0","AQXEQDTAU4MJ4","img_art/7.jpg","4","","","","","","","","","","","","","","","","","","","","","","","","",""
"7985","","image-button-response","208","1769340","0.0-206.0-0.0","AQXEQDTAU4MJ4","img_art/7.jpg","5","","","","","","","","","","","","","","","","","","","","","","","","",""
"3383","","image-button-response","209","1772730","0.0-207.0-0.0","AQXEQDTAU4MJ4","img_art/7.jpg","0","","","","","","","","","","","","","","","","","","","","","","","","",""
"null","","html-keyboard-response","210","1773236","0.0-208.0","AQXEQDTAU4MJ4","<p style=""font-size: 48px;"">+</p>","","","","","null","allTrialResponses","500","1","23","img_art/7.jpg","-8","looks like the desert ground","Hannah,Kelsey,Jamie,Lauren,Brooke,Rachel","Looks almost like a photograph of nature.,11,240,20","its like oatmeal with granola,-47,240,20","Looks like a battle raging on,20,320,20","I like how the image has a sense of history, since the style looks like it came from stone.,20,340,20","tracks in dirt?,-15,60,20","Looks like a desert or another planet. While the color choices are narrow, it's still interesting because it is very natural.,12,80,20","Brooke","tracks in dirt?,-15,60,20","Rachel","Looks like a desert or another planet. While the color choices are narrow, it's still interesting because it is very natural.,12,80,20","Hannah","Looks almost like a photograph of nature.,11,240,20","4"
"31011","","survey-text","211","1804276","0.0-209.0-0.0","AQXEQDTAU4MJ4","","","","{""Q0"":""not sure what i'm looking  at but looks like it could have more meaning to it""}","","","","","","","","","","","","","","","","","","","","","","",""
"2742.800000000745","","image-slider-response","212","1807024","0.0-210.0","AQXEQDTAU4MJ4","","","","","4","","","","","","","","","","","","","","","","","","","","","",""
"null","","image-button-response","213","1812030","0.0-211.0","AQXEQDTAU4MJ4","img_art/27.jpg","null","","","","","","","","","","","","","","","","","","","","","","","","",""
"10526","","image-button-response","214","1822562","0.0-212.0","AQXEQDTAU4MJ4","img_art/27.jpg","4","","","","","","","","","","","","","","","","","","","","","","","","",""
"1782","","image-button-response","215","1824350","0.0-213.0-0.0","AQXEQDTAU4MJ4","img_art/27.jpg","1","","","","","","","","","","","","","","","","","","","","","","","","",""
"4167","","image-button-response","216","1828524","0.0-214.0-0.0","AQXEQDTAU4MJ4","img_art/27.jpg","5","","","","","","","","","","","","","","","","","","","","","","","","",""
"null","","html-keyboard-response","217","1829527","0.0-215.0","AQXEQDTAU4MJ4","<p style=""font-size: 48px;"">+</p>","","","","","null","allTrialResponses","1000","1","24","img_art/27.jpg","4","not sure what i'm looking  at but looks like it could have more meaning to it","Hannah,Autumn,Mikayla,Jacqueline,Brooke,Rachel","Reminds me of something I'd see in a gold frame from the Eighties.,-9,240,20","Adult contemporary painting with child.,-33,340,20","It kinda reminds me of sushi.,16,300,20","I don't really see anything to this art.,-5,300,20","Like it, autumn colors, trees and foliage scene.,25,60,20","Color story is boring in nature, and I feel nothing but boredom from this piece.,-20,80,20","Brooke","Like it, autumn colors, trees and foliage scene.,25,60,20","Autumn","Adult contemporary painting with child.,-33,340,20","Rachel","Color story is boring in nature, and I feel nothing but boredom from this piece.,-20,80,20","4"
"36449","","survey-text","218","1865992","0.0-216.0-0.0","AQXEQDTAU4MJ4","","","","{""Q0"":""this one is very interesting. I like looks at all the different things going on""}","","","","","","","","","","","","","","","","","","","","","","",""
"2979.5","","image-slider-response","219","1868977","0.0-217.0","AQXEQDTAU4MJ4","","","","","31","","","","","","","","","","","","","","","","","","","","","",""
"null","","image-button-response","220","1873982","0.0-218.0","AQXEQDTAU4MJ4","img_art/8.jpg","null","","","","","","","","","","","","","","","","","","","","","","","","",""
"12069","","image-button-response","221","1886057","0.0-219.0","AQXEQDTAU4MJ4","img_art/8.jpg","5","","","","","","","","","","","","","","","","","","","","","","","","",""
"1180","","image-button-response","222","1887244","0.0-220.0-0.0","AQXEQDTAU4MJ4","img_art/8.jpg","1","","","","","","","","","","","","","","","","","","","","","","","","",""
"9831","","image-button-response","223","1897089","0.0-221.0-0.0","AQXEQDTAU4MJ4","img_art/8.jpg","2","","","","","","","","","","","","","","","","","","","","","","","","",""
"null","","html-keyboard-response","224","1898093","0.0-222.0","AQXEQDTAU4MJ4","<p style=""font-size: 48px;"">+</p>","","","","","null","allTrialResponses","1000","1","25","img_art/8.jpg","31","this one is very interesting. I like looks at all the different things going on","Leslie,Autumn,Marissa,Kathryn,Brooke,Rachel","The stylized faces remind me of German expressionism in a very good way.,40,380,20","Well painted. Not my style.,27,340,20","I can't tell if this is supposed to portray just city life or a town crumbling,-5,160,20","The angle makes it kind of disorienting but I enjoy the fantastical colors and imagery. It's like a dream.,10,140,20","what's going on here. looks like scary town.,-25,60,20","I like all of the faces that can be found in this piece. Interesting.,35,80,20","Rachel","I like all of the faces that can be found in this piece. Interesting.,35,80,20","Autumn","Well painted. Not my style.,27,340,20","Marissa","I can't tell if this is supposed to portray just city life or a town crumbling,-5,160,20","4"
"5498","","survey-text","225","1903633","0.0-223.0-0.0","AQXEQDTAU4MJ4","","","","{""Q0"":""table""}","","","","","","","","","","","","","","","","","","","","","","",""
"17328","","survey-text","226","1920967","0.0-224.0-0.0","AQXEQDTAU4MJ4","","","","{""Q0"":""looks sad and scary""}","","","","","","","","","","","","","","","","","","","","","","",""
"3102.0999999996275","","image-slider-response","227","1924075","0.0-225.0","AQXEQDTAU4MJ4","","","","","-37","","","","","","","","","","","","","","","","","","","","","",""
"null","","image-button-response","228","1929080","0.0-226.0","AQXEQDTAU4MJ4","img_art/10.jpg","null","","","","","","","","","","","","","","","","","","","","","","","","",""
"12633","","image-button-response","229","1941719","0.0-227.0","AQXEQDTAU4MJ4","img_art/10.jpg","1","","","","","","","","","","","","","","","","","","","","","","","","",""
"1858","","image-button-response","230","1943585","0.0-228.0-0.0","AQXEQDTAU4MJ4","img_art/10.jpg","2","","","","","","","","","","","","","","","","","","","","","","","","",""
"5063","","image-button-response","231","1948659","0.0-229.0-0.0","AQXEQDTAU4MJ4","img_art/10.jpg","4","","","","","","","","","","","","","","","","","","","","","","","","",""
"null","","html-keyboard-response","232","1949163","0.0-230.0","AQXEQDTAU4MJ4","<p style=""font-size: 48px;"">+</p>","","","","","null","allTrialResponses","500","1","26","img_art/10.jpg","-37","looks sad and scary","Kristen,Autumn,Marissa,Lindsey,Jessica,Rachel","music, serenity, love,33,280,20","It just looks like a dirty stain.,-38,340,20","My immediate thought is WTF is this,-20,160,20","Looks like a violin. Not a fan of the smudges and smears, but my initial reaction was positive.,11,400,20","I feel like this has a cool concept behind it.,11,400,20","Reminds me of a terrarium with cacti inside. It reminds me of home.,27,80,20","Autumn","It just looks like a dirty stain.,-38,340,20","Marissa","My immediate thought is WTF is this,-20,160,20","Jessica","I feel like this has a cool concept behind it.,11,400,20","4"
"54395","","survey-text","233","2003584","0.0-231.0-0.0","AQXEQDTAU4MJ4","","","","{""Q0"":""it reminds me of night time in a city but i don't like the red in it""}","","","","","","","","","","","","","","","","","","","","","","",""
"2487.100000000559","","image-slider-response","234","2006076","0.0-232.0","AQXEQDTAU4MJ4","","","","","-7","","","","","","","","","","","","","","","","","","","","","",""
"null","","image-button-response","235","2011082","0.0-233.0","AQXEQDTAU4MJ4","img_art/30.jpg","null","","","","","","","","","","","","","","","","","","","","","","","","",""
"10449","","image-button-response","236","2021535","0.0-234.0","AQXEQDTAU4MJ4","img_art/30.jpg","0","","","","","","","","","","","","","","","","","","","","","","","","",""
"2769","","image-button-response","237","2024312","0.0-235.0-0.0","AQXEQDTAU4MJ4","img_art/30.jpg","1","","","","","","","","","","","","","","","","","","","","","","","","",""
"4684","","image-button-response","238","2029003","0.0-236.0-0.0","AQXEQDTAU4MJ4","img_art/30.jpg","5","","","","","","","","","","","","","","","","","","","","","","","","",""
"null","","html-keyboard-response","239","2030510","0.0-237.0","AQXEQDTAU4MJ4","<p style=""font-size: 48px;"">+</p>","","","","","null","allTrialResponses","1500","1","27","img_art/30.jpg","-7","it reminds me of night time in a city but i don't like the red in it","Stephanie,Autumn,Marissa,Bailey,Jessica,Nicole","My kindergarten class could do this,-50,300,20","Absolutely messy,-31,340,20","I really like the broad and colorful strokes,21,160,20","No my favorite, but I do like the long strokes of color,11,360,20","Looks cool , but no meaning,1,400,20","I like the softness of this but it doesn't make me feel that nice,5,20,20","Stephanie","My kindergarten class could do this,-50,300,20","Autumn","Absolutely messy,-31,340,20","Nicole","I like the softness of this but it doesn't make me feel that nice,5,20,20","4"
"8533","","survey-text","240","2039066","0.0-238.0-0.0","AQXEQDTAU4MJ4","","","","{""Q0"":""looks chaotic""}","","","","","","","","","","","","","","","","","","","","","","",""
"2815.7999999998137","","image-slider-response","241","2041886","0.0-239.0","AQXEQDTAU4MJ4","","","","","-28","","","","","","","","","","","","","","","","","","","","","",""
"null","","image-button-response","242","2046892","0.0-240.0","AQXEQDTAU4MJ4","img_art/18.jpg","null","","","","","","","","","","","","","","","","","","","","","","","","",""
"11430","","image-button-response","243","2058328","0.0-241.0","AQXEQDTAU4MJ4","img_art/18.jpg","4","","","","","","","","","","","","","","","","","","","","","","","","",""
"1912","","image-button-response","244","2060248","0.0-242.0-0.0","AQXEQDTAU4MJ4","img_art/18.jpg","2","","","","","","","","","","","","","","","","","","","","","","","","",""
"3020","","image-button-response","245","2063276","0.0-243.0-0.0","AQXEQDTAU4MJ4","img_art/18.jpg","5","","","","","","","","","","","","","","","","","","","","","","","","",""
"null","","html-keyboard-response","246","2064781","0.0-244.0","AQXEQDTAU4MJ4","<p style=""font-size: 48px;"">+</p>","","","","","null","allTrialResponses","1500","1","28","img_art/18.jpg","-28","looks chaotic","Stephanie,Autumn,Emily,Sophia,Sydney,Nicole","It made me think of a car crash,-39,300,20","This looks amazing.,40,340,20","Not my style but I can see some serious skill went int it.,21,40,20","This one is very dark and apocalyptic indeed!,-30,280,20","I like the colors being used, but I don't like the chaos in the middle of it.,20,320,20","There's danger in this painting and it's awesome,40,20,20","Sydney","I like the colors being used, but I don't like the chaos in the middle of it.,20,320,20","Emily","Not my style but I can see some serious skill went int it.,21,40,20","Nicole","There's danger in this painting and it's awesome,40,20,20","4"
"8140","","survey-text","247","2072947","0.0-245.0-0.0","AQXEQDTAU4MJ4","","","","{""Q0"":""not a fan""}","","","","","","","","","","","","","","","","","","","","","","",""
"3359.5","","image-slider-response","248","2076311","0.0-246.0","AQXEQDTAU4MJ4","","","","","-42","","","","","","","","","","","","","","","","","","","","","",""
"null","","image-button-response","249","2081318","0.0-247.0","AQXEQDTAU4MJ4","img_art/19.jpg","null","","","","","","","","","","","","","","","","","","","","","","","","",""
"11745","","image-button-response","250","2093070","0.0-248.0","AQXEQDTAU4MJ4","img_art/19.jpg","0","","","","","","","","","","","","","","","","","","","","","","","","",""
"664","","image-button-response","251","2093742","0.0-249.0-0.0","AQXEQDTAU4MJ4","img_art/19.jpg","1","","","","","","","","","","","","","","","","","","","","","","","","",""
"1012","","image-button-response","252","2094760","0.0-250.0-0.0","AQXEQDTAU4MJ4","img_art/19.jpg","2","","","","","","","","","","","","","","","","","","","","","","","","",""
"null","","html-keyboard-response","253","2095765","0.0-251.0","AQXEQDTAU4MJ4","<p style=""font-size: 48px;"">+</p>","","","","","null","allTrialResponses","1000","1","29","img_art/19.jpg","-42","not a fan","Cassidy,Gabriela,Emily,Miranda,Sydney,Nicole","too much going on, can't tell what it is,-14,140,20","it looks messy and non-unique.,-9,140,20","Loks like an amature did it, Not pleasing.,-45,40,20","It looks cool but at the time looks like it was done by a talented 5 year old.,13,320,20","I like the color and the mix of sketches along with paint.,30,320,20","Feels like something I would hang in my dining room,42,20,20","Cassidy","too much going on, can't tell what it is,-14,140,20","Gabriela","it looks messy and non-unique.,-9,140,20","Emily","Loks like an amature did it, Not pleasing.,-45,40,20","4"
"47174","","survey-text","254","2142954","0.0-252.0-0.0","AQXEQDTAU4MJ4","","","","{""Q0"":""interesting. seems like their could be more meaning behind this one""}","","","","","","","","","","","","","","","","","","","","","","",""
"3864.0999999996275","","image-slider-response","255","2146824","0.0-253.0","AQXEQDTAU4MJ4","","","","","-3","","","","","","","","","","","","","","","","","","","","","",""
"null","","image-button-response","256","2151829","0.0-254.0","AQXEQDTAU4MJ4","img_art/6.jpg","null","","","","","","","","","","","","","","","","","","","","","","","","",""
"12213","","image-button-response","257","2164047","0.0-255.0","AQXEQDTAU4MJ4","img_art/6.jpg","1","","","","","","","","","","","","","","","","","","","","","","","","",""
"2302","","image-button-response","258","2166355","0.0-256.0-0.0","AQXEQDTAU4MJ4","img_art/6.jpg","3","","","","","","","","","","","","","","","","","","","","","","","","",""
"5464","","image-button-response","259","2171827","0.0-257.0-0.0","AQXEQDTAU4MJ4","img_art/6.jpg","0","","","","","","","","","","","","","","","","","","","","","","","","",""
"null","","html-keyboard-response","260","2173331","0.0-258.0","AQXEQDTAU4MJ4","<p style=""font-size: 48px;"">+</p>","","","","","null","allTrialResponses","1500","1","30","img_art/6.jpg","-3","interesting. seems like their could be more meaning behind this one","Cassidy,Gabriela,Emily,Sarah,Dominique,Jenna","The background on the upper half is nice. I also like the contrast of the top and bottom halves,5,140,20","This looks like a crow, sort of bleak,-26,140,20","Looks like a kid created it.,-50,40,20","it's interesting but I don't love it,10,180,20","Calm and catching,30,400,20","I like the bottom half, but not the top,-7,360,20","Gabriela","This looks like a crow, sort of bleak,-26,140,20","Sarah","it's interesting but I don't love it,10,180,20","Cassidy","The background on the upper half is nice. I also like the contrast of the top and bottom halves,5,140,20","4"
"6982","","image-button-response_instructions","261","2180340","0.0-259.0","AQXEQDTAU4MJ4","","0","instructions","","","","","","","","","","","","","","","","","","","","","","","",""
"1325","","image-button-response","262","2181679","0.0-260.0","AQXEQDTAU4MJ4","","0","","","","","","","","","","","","","","","","","","","","","","","","",""
