"rt","url","trial_type","trial_index","time_elapsed","internal_node_id","participant_id","stimulus","button_pressed","Name","responses","response","key_press","variableName","fixationTime","condition","trial","photo","subjectRating","subjectResponse","agentsNames","agent_1_Response","agent_2_Response","agent_3_Response","agent_4_Response","agent_5_Response","agent_6_Response","kept_1_name","kept_1_response","kept_2_name","kept_2_response","kept_3_name","kept_3_response","errorCounter"
"17420","external_page_harvard.html","external-html","0","17625","0.0-0.0","AR5RKWHR0DUCS","","","","","","","","","","","","","","","","","","","","","","","","","","",""
"2988","","image-button-response","1","20620","0.0-1.0","AR5RKWHR0DUCS","","0","","","","","","","","","","","","","","","","","","","","","","","","",""
"1962","","image-button-response","2","22594","0.0-2.0-0.0","AR5RKWHR0DUCS","","1","phone","","","","","","","","","","","","","","","","","","","","","","","",""
"10884","","survey-text","3","33485","0.0-3.0-0.0","AR5RKWHR0DUCS","","","","{""Q0"":""AR5RKWHR0DUCS""}","","","","","","","","","","","","","","","","","","","","","","",""
"11056","","image-button-response_instructions","4","44548","0.0-4.0","AR5RKWHR0DUCS","","0","instructions","","","","","","","","","","","","","","","","","","","","","","","",""
"12392","","image-button-response_instructions","5","56944","0.0-5.0","AR5RKWHR0DUCS","img_art/ins/popularity/ins1.png","0","instructions","","","","","","","","","","","","","","","","","","","","","","","",""
"6714","","image-button-response_instructions","6","63662","0.0-6.0","AR5RKWHR0DUCS","img_art/ins/popularity/ins2.png","0","instructions","","","","","","","","","","","","","","","","","","","","","","","",""
"3266","","image-button-response_instructions","7","66932","0.0-7.0","AR5RKWHR0DUCS","img_art/ins/popularity/ins2Extreme.png","0","instructions","","","","","","","","","","","","","","","","","","","","","","","",""
"2788","","image-button-response_instructions","8","69724","0.0-8.0","AR5RKWHR0DUCS","img_art/ins/popularity/ins3KEEPpop.PNG","0","instructions","","","","","","","","","","","","","","","","","","","","","","","",""
"4383","","image-button-response_instructions","9","74110","0.0-9.0","AR5RKWHR0DUCS","img_art/ins/popularity/ins3ANamepop.PNG","0","instructions","","","","","","","","","","","","","","","","","","","","","","","",""
"3655","","image-button-response_instructions","10","77769","0.0-10.0","AR5RKWHR0DUCS","img_art/ins/popularity/ins3ARatingpop.png","0","instructions","","","","","","","","","","","","","","","","","","","","","","","",""
"2248","","image-button-response_instructions","11","80023","0.0-11.0","AR5RKWHR0DUCS","img_art/ins/popularity/ins3ATextpop.png","0","instructions","","","","","","","","","","","","","","","","","","","","","","","",""
"2423","","image-button-response_instructions","12","82450","0.0-12.0","AR5RKWHR0DUCS","img_art/ins/popularity/ins3ALikespop.png","0","instructions","","","","","","","","","","","","","","","","","","","","","","","",""
"2571","","image-button-response_instructions","13","85024","0.0-13.0","AR5RKWHR0DUCS","img_art/ins/popularity/ins3KEEPpop.PNG","0","instructions","","","","","","","","","","","","","","","","","","","","","","","",""
"5368","","image-button-response_instructions","14","90428","0.0-14.0","AR5RKWHR0DUCS","img_art/ins/popularity/ins3_5RED.png","0","instructions","","","","","","","","","","","","","","","","","","","","","","","",""
"2529","","image-button-response_instructions","15","92959","0.0-15.0","AR5RKWHR0DUCS","img_art/ins/popularity/ins3KEEPpop.PNG","0","instructions","","","","","","","","","","","","","","","","","","","","","","","",""
"3516","","image-button-response_instructions","16","96477","0.0-16.0","AR5RKWHR0DUCS","img_art/ins/popularity/ins4KEEPpop.PNG","0","instructions","","","","","","","","","","","","","","","","","","","","","","","",""
"3345","","image-button-response_instructions","17","99825","0.0-17.0","AR5RKWHR0DUCS","img_art/ins/popularity/ins5KEEPpop.PNG","0","instructions","","","","","","","","","","","","","","","","","","","","","","","",""
"1281","","image-button-response_instructions","18","101109","0.0-18.0","AR5RKWHR0DUCS","","0","instructions","","","","","","","","","","","","","","","","","","","","","","","",""
"5818","","survey-text","19","106968","0.0-19.0-0.0","AR5RKWHR0DUCS","","","","{""Q0"":""but""}","","","","","","","","","","","","","","","","","","","","","","",""
"20894","","survey-text","20","127865","0.0-20.0-0.0","AR5RKWHR0DUCS","","","","{""Q0"":""nothing really, i like the colors""}","","","","","","","","","","","","","","","","","","","","","","",""
"10903.099999964237","","image-slider-response","21","138778","0.0-21.0","AR5RKWHR0DUCS","","","","","-4","","","","","","","","","","","","","","","","","","","","","",""
"null","","image-button-response","22","143787","0.0-22.0","AR5RKWHR0DUCS","img_art/ins/1.jpg","null","","","","","","","","","","","","","","","","","","","","","","","","",""
"2515","","image-button-response","23","146311","0.0-23.0","AR5RKWHR0DUCS","img_art/ins/1.jpg","4","","","","","","","","","","","","","","","","","","","","","","","","",""
"3018","","image-button-response","24","149336","0.0-24.0-0.0","AR5RKWHR0DUCS","img_art/ins/1.jpg","2","","","","","","","","","","","","","","","","","","","","","","","","",""
"1431","","image-button-response","25","150774","0.0-25.0-0.0","AR5RKWHR0DUCS","img_art/ins/1.jpg","0","","","","","","","","","","","","","","","","","","","","","","","","",""
"null","","html-keyboard-response","26","152282","0.0-26.0","AR5RKWHR0DUCS","<p style=""font-size: 48px;"">+</p>","","","","","null","allTrialResponses","1500","1","-2","img_art/ins/1.jpg","-4","nothing really, i like the colors","Adam,Alex,Ben,Carl,Daniel,Jack","Seems like doodles,-20,20,20","very creative work.,36,40,20","This color reminds me of poo,-46,60,20","very calming artwork,42,80,20","It looks like a murder scene.,-48,100,20","I like the sophisticated brushwork,40,120,20","Daniel","It looks like a murder scene.,-48,100,20","Ben","This color reminds me of poo,-46,60,20","Adam","Seems like doodles,-20,20,20","0"
"14600","","survey-text","27","166904","0.0-27.0-0.0","AR5RKWHR0DUCS","","","","{""Q0"":""it makes me feel energetic""}","","","","","","","","","","","","","","","","","","","","","","",""
"4983","","image-slider-response","28","171890","0.0-28.0","AR5RKWHR0DUCS","","","","","24","","","","","","","","","","","","","","","","","","","","","",""
"4832","","image-button-response","29","176902","0.0-29.0","AR5RKWHR0DUCS","img_art/ins/2.jpg","1","","","","","","","","","","","","","","","","","","","","","","","","",""
"2061","","image-button-response","30","178973","0.0-30.0","AR5RKWHR0DUCS","img_art/ins/2.jpg","4","","","","","","","","","","","","","","","","","","","","","","","","",""
"964","","image-button-response","31","179941","0.0-31.0-0.0","AR5RKWHR0DUCS","img_art/ins/2.jpg","3","","","","","","","","","","","","","","","","","","","","","","","","",""
"1231","","image-button-response","32","181178","0.0-32.0-0.0","AR5RKWHR0DUCS","img_art/ins/2.jpg","1","","","","","","","","","","","","","","","","","","","","","","","","",""
"null","","html-keyboard-response","33","182183","0.0-33.0","AR5RKWHR0DUCS","<p style=""font-size: 48px;"">+</p>","","","","","null","allTrialResponses","1000","1","-1","img_art/ins/2.jpg","24","it makes me feel energetic","Adam,John,Ben,James,Daniel,Kyle","too much color,-18,20,20","love the texture of paint,48,160,20","meaningless painting,-45,60,20","looks too angry,-50,140,20","One of my pet peevs,-48,100,20","Idk, it is just annoying,-32,180,20","Daniel","One of my pet peevs,-48,100,20","James","looks too angry,-50,140,20","John","love the texture of paint,48,160,20","0"
"22636","","survey-text","34","204826","0.0-34.0-0.0","AR5RKWHR0DUCS","","","","{""Q0"":""it has a calming effect on me, i like it""}","","","","","","","","","","","","","","","","","","","","","","",""
"7412.699999988079","","image-slider-response","35","212241","0.0-35.0","AR5RKWHR0DUCS","","","","","39","","","","","","","","","","","","","","","","","","","","","",""
"4940","","image-button-response","36","217247","0.0-36.0","AR5RKWHR0DUCS","img_art/ins/3.jpg","5","","","","","","","","","","","","","","","","","","","","","","","","",""
"591","","image-button-response","37","217841","0.0-37.0","AR5RKWHR0DUCS","img_art/ins/3.jpg","5","","","","","","","","","","","","","","","","","","","","","","","","",""
"2055","","image-button-response","38","219901","0.0-38.0-0.0","AR5RKWHR0DUCS","img_art/ins/3.jpg","1","","","","","","","","","","","","","","","","","","","","","","","","",""
"907","","image-button-response","39","220816","0.0-39.0-0.0","AR5RKWHR0DUCS","img_art/ins/3.jpg","2","","","","","","","","","","","","","","","","","","","","","","","","",""
"null","","html-keyboard-response","40","221820","0.0-40.0","AR5RKWHR0DUCS","<p style=""font-size: 48px;"">+</p>","","","","","null","allTrialResponses","1000","1","0","img_art/ins/3.jpg","39","it has a calming effect on me, i like it","Ron,John,Mike,James,Daniel,Sam","It looks depressing,-26,220,20","I like the overlapping of brushes,41,160,20","enjoy the different shades of blue,22,200,20","My worst nightmare,-42,140,20","looks like a murder room,-35,100,20","I can feel a rainy day from this painting,18,240,20","Sam","I can feel a rainy day from this painting,18,240,20","John","I like the overlapping of brushes,41,160,20","Mike","enjoy the different shades of blue,22,200,20","0"
"6592","","image-button-response_instructions","41","228441","0.0-41.0","AR5RKWHR0DUCS","","0","instructions","","","","","","","","","","","","","","","","","","","","","","","",""
"12858","","survey-likert","42","241304","0.0-42.0-0.0","AR5RKWHR0DUCS","","","","{""Q0"":"""",""Q1"":0,""Q2"":1}","","","","","","","","","","","","","","","","","","","","","","",""
"4814","","survey-text","43","246132","0.0-43.0-0.0","AR5RKWHR0DUCS","","","","{""Q0"":""rock""}","","","","","","","","","","","","","","","","","","","","","","",""
"27584","","survey-text","44","273722","0.0-44.0-0.0","AR5RKWHR0DUCS","","","","{""Q0"":""it makes me feel inspired to get up and do something""}","","","","","","","","","","","","","","","","","","","","","","",""
"5899.099999964237","","image-slider-response","45","279630","0.0-45.0","AR5RKWHR0DUCS","","","","","23","","","","","","","","","","","","","","","","","","","","","",""
"2065","","image-button-response","46","284693","0.0-46.0","AR5RKWHR0DUCS","img_art/21.jpg","1","","","","","","","","","","","","","","","","","","","","","","","","",""
"699","","image-button-response","47","285398","0.0-47.0","AR5RKWHR0DUCS","img_art/21.jpg","4","","","","","","","","","","","","","","","","","","","","","","","","",""
"2184","","image-button-response","48","287587","0.0-48.0-0.0","AR5RKWHR0DUCS","img_art/21.jpg","1","","","","","","","","","","","","","","","","","","","","","","","","",""
"1418","","image-button-response","49","289013","0.0-49.0-0.0","AR5RKWHR0DUCS","img_art/21.jpg","5","","","","","","","","","","","","","","","","","","","","","","","","",""
"null","","html-keyboard-response","50","290016","0.0-50.0","AR5RKWHR0DUCS","<p style=""font-size: 48px;"">+</p>","","","","","null","allTrialResponses","1000","1","1","img_art/21.jpg","23","it makes me feel inspired to get up and do something","Brian,Cameron,Angel,Anthony,Benjamin,Gabriel","there's not enough fine detail in this one,-27,380,20","Like the colors. Don't like the white dots on the right side of the painting though.,15,60,20","This feels chaotic, like a battle or a storm.,-20,180,20","Bland, this painting is my least favorite,-20,200,20","sunset after the rain,49,260,20","i like watercolor,22,160,20","Benjamin","sunset after the rain,49,260,20","Cameron","Like the colors. Don't like the white dots on the right side of the painting though.,15,60,20","Gabriel","i like watercolor,22,160,20","0"
"16178","","survey-text","51","306210","0.0-51.0-0.0","AR5RKWHR0DUCS","","","","{""Q0"":""it makes me feel gross i hate this one""}","","","","","","","","","","","","","","","","","","","","","","",""
"6697.799999952316","","image-slider-response","52","312917","0.0-52.0","AR5RKWHR0DUCS","","","","","-50","","","","","","","","","","","","","","","","","","","","","",""
"null","","image-button-response","53","317922","0.0-53.0","AR5RKWHR0DUCS","img_art/19.jpg","null","","","","","","","","","","","","","","","","","","","","","","","","",""
"3701","","image-button-response","54","321629","0.0-54.0","AR5RKWHR0DUCS","img_art/19.jpg","5","","","","","","","","","","","","","","","","","","","","","","","","",""
"2322","","image-button-response","55","323960","0.0-55.0-0.0","AR5RKWHR0DUCS","img_art/19.jpg","1","","","","","","","","","","","","","","","","","","","","","","","","",""
"1211","","image-button-response","56","325182","0.0-56.0-0.0","AR5RKWHR0DUCS","img_art/19.jpg","0","","","","","","","","","","","","","","","","","","","","","","","","",""
"null","","html-keyboard-response","57","326187","0.0-57.0","AR5RKWHR0DUCS","<p style=""font-size: 48px;"">+</p>","","","","","null","allTrialResponses","1000","1","2","img_art/19.jpg","-50","it makes me feel gross i hate this one","Adrian,Cameron,Steven,Stephen,Benjamin,Gabriel","Pleasant colors with just enough detail to be recognizable. I can see a scene in it that tells a story.,7,60,20","Snowy winter scene,25,60,20","I like it, I see someone walking his dog in the early morning time,23,160,20","Solid use of colors but wished it looked more realistic.,12,140,20","Reminds me of a busy village.,16,260,20","not sure if i like it or not,1,160,20","Gabriel","not sure if i like it or not,1,160,20","Cameron","Snowy winter scene,25,60,20","Adrian","Pleasant colors with just enough detail to be recognizable. I can see a scene in it that tells a story.,7,60,20","0"
"26784","","survey-text","58","352990","0.0-58.0-0.0","AR5RKWHR0DUCS","","","","{""Q0"":""It's beautiful, it gives me the warm fuzzies""}","","","","","","","","","","","","","","","","","","","","","","",""
"6033.699999988079","","image-slider-response","59","359028","0.0-59.0","AR5RKWHR0DUCS","","","","","48","","","","","","","","","","","","","","","","","","","","","",""
"4397","","image-button-response","60","364035","0.0-60.0","AR5RKWHR0DUCS","img_art/17.jpg","1","","","","","","","","","","","","","","","","","","","","","","","","",""
"853","","image-button-response","61","364895","0.0-61.0","AR5RKWHR0DUCS","img_art/17.jpg","1","","","","","","","","","","","","","","","","","","","","","","","","",""
"2017","","image-button-response","62","366918","0.0-62.0-0.0","AR5RKWHR0DUCS","img_art/17.jpg","0","","","","","","","","","","","","","","","","","","","","","","","","",""
"1092","","image-button-response","63","368016","0.0-63.0-0.0","AR5RKWHR0DUCS","img_art/17.jpg","0","","","","","","","","","","","","","","","","","","","","","","","","",""
"870","","image-button-response","64","372974","0.0-63.1-0.1","AR5RKWHR0DUCS","img_art/17.jpg","3","","","","","","","","","","","","","","","","","","","","","","","","",""
"null","","html-keyboard-response","65","373980","0.0-64.0","AR5RKWHR0DUCS","<p style=""font-size: 48px;"">+</p>","","","","","null","allTrialResponses","1000","1","3","img_art/17.jpg","48","It's beautiful, it gives me the warm fuzzies","Adrian,Cameron,Ryan,Vincent,Joshua,Gabriel","Pretty composition and I like the colors.,20,60,20","doorways and trees are pleasant,30,60,20","Feels supernatural and scary,-16,380,20","Another favorite a relaxing day with nature a day to take it all In,34,360,20","Looks like an abandoned building that is being overtaken by nature.,-10,240,20","this ones alright,10,160,20","Cameron","doorways and trees are pleasant,30,60,20","Adrian","Pretty composition and I like the colors.,20,60,20","Vincent","Another favorite a relaxing day with nature a day to take it all In,34,360,20","2"
"29506","","survey-text","66","403495","0.0-65.0-0.0","AR5RKWHR0DUCS","","","","{""Q0"":""it's ugly and i don't like looking at it""}","","","","","","","","","","","","","","","","","","","","","","",""
"10493.700000047684","","image-slider-response","67","413995","0.0-66.0","AR5RKWHR0DUCS","","","","","-50","","","","","","","","","","","","","","","","","","","","","",""
"3390","","image-button-response","68","419004","0.0-67.0","AR5RKWHR0DUCS","img_art/5.jpg","0","","","","","","","","","","","","","","","","","","","","","","","","",""
"679","","image-button-response","69","419696","0.0-68.0","AR5RKWHR0DUCS","img_art/5.jpg","2","","","","","","","","","","","","","","","","","","","","","","","","",""
"1273","","image-button-response","70","420974","0.0-69.0-0.0","AR5RKWHR0DUCS","img_art/5.jpg","1","","","","","","","","","","","","","","","","","","","","","","","","",""
"991","","image-button-response","71","421971","0.0-70.0-0.0","AR5RKWHR0DUCS","img_art/5.jpg","0","","","","","","","","","","","","","","","","","","","","","","","","",""
"null","","html-keyboard-response","72","422977","0.0-71.0","AR5RKWHR0DUCS","<p style=""font-size: 48px;"">+</p>","","","","","null","allTrialResponses","1000","1","4","img_art/5.jpg","-50","it's ugly and i don't like looking at it","Adrian,Cameron,Alex,Vincent,Miguel,Jeremy","Black bit reminds me of a giant splinter. Yellow bit reminds me of urine. I hate it.,-50,60,20","No. What even is this? A mop?,-35,60,20","What is this? It looks like no effort was put into this work,-2,100,20","It speaks volumes to some. It's also a conversational piece. And very different ideas,34,360,20","Appealing but shapeless,24,160,20","I don't hate it but I can't relate to it,1,60,20","Alex","What is this? It looks like no effort was put into this work,-2,100,20","Cameron","No. What even is this? A mop?,-35,60,20","Adrian","Black bit reminds me of a giant splinter. Yellow bit reminds me of urine. I hate it.,-50,60,20","2"
"23344","","survey-text","73","446330","0.0-72.0-0.0","AR5RKWHR0DUCS","","","","{""Q0"":""I feel nothing on this one, it's pretty meh""}","","","","","","","","","","","","","","","","","","","","","","",""
"6313.599999964237","","image-slider-response","74","452650","0.0-73.0","AR5RKWHR0DUCS","","","","","-1","","","","","","","","","","","","","","","","","","","","","",""
"4567","","image-button-response","75","457661","0.0-74.0","AR5RKWHR0DUCS","img_art/27.jpg","1","","","","","","","","","","","","","","","","","","","","","","","","",""
"1089","","image-button-response","76","458759","0.0-75.0","AR5RKWHR0DUCS","img_art/27.jpg","4","","","","","","","","","","","","","","","","","","","","","","","","",""
"1314","","image-button-response","77","460085","0.0-76.0-0.0","AR5RKWHR0DUCS","img_art/27.jpg","5","","","","","","","","","","","","","","","","","","","","","","","","",""
"1832","","image-button-response","78","461926","0.0-77.0-0.0","AR5RKWHR0DUCS","img_art/27.jpg","1","","","","","","","","","","","","","","","","","","","","","","","","",""
"null","","html-keyboard-response","79","463434","0.0-78.0","AR5RKWHR0DUCS","<p style=""font-size: 48px;"">+</p>","","","","","null","allTrialResponses","1500","1","5","img_art/27.jpg","-1","I feel nothing on this one, it's pretty meh","Adrian,Cameron,Alex,Carlos,Mark,Adam","Looks like my niece's doodles.,-50,60,20","Like it, autumn colors, trees and foliage scene.,25,60,20","very abstract, I don't understand it, but I like the bright, cheerful colors,14,100,20","The green lines disrupt the image in an unpleasant and hurried way.,-30,80,20","I see a cathedral through the woods.,12,80,20","Warn colors are pretty, but too blotchy for me.,3,40,20","Mark","I see a cathedral through the woods.,12,80,20","Adam","Warn colors are pretty, but too blotchy for me.,3,40,20","Cameron","Like it, autumn colors, trees and foliage scene.,25,60,20","2"
"5252","","survey-text","80","468720","0.0-79.0-0.0","AR5RKWHR0DUCS","","","","{""Q0"":""sky""}","","","","","","","","","","","","","","","","","","","","","","",""
"27418","","survey-text","81","496141","0.0-80.0-0.0","AR5RKWHR0DUCS","","","","{""Q0"":""it's garbage, this one make me angry""}","","","","","","","","","","","","","","","","","","","","","","",""
"5606.899999976158","","image-slider-response","82","501757","0.0-81.0","AR5RKWHR0DUCS","","","","","-50","","","","","","","","","","","","","","","","","","","","","",""
"4902","","image-button-response","83","506767","0.0-82.0","AR5RKWHR0DUCS","img_art/16.jpg","3","","","","","","","","","","","","","","","","","","","","","","","","",""
"957","","image-button-response","84","507739","0.0-83.0","AR5RKWHR0DUCS","img_art/16.jpg","3","","","","","","","","","","","","","","","","","","","","","","","","",""
"1090","","image-button-response","85","508834","0.0-84.0-0.0","AR5RKWHR0DUCS","img_art/16.jpg","1","","","","","","","","","","","","","","","","","","","","","","","","",""
"1218","","image-button-response","86","510068","0.0-85.0-0.0","AR5RKWHR0DUCS","img_art/16.jpg","0","","","","","","","","","","","","","","","","","","","","","","","","",""
"null","","html-keyboard-response","87","511575","0.0-86.0","AR5RKWHR0DUCS","<p style=""font-size: 48px;"">+</p>","","","","","null","allTrialResponses","1500","1","6","img_art/16.jpg","-50","it's garbage, this one make me angry","Hunter,Cameron,Shawn,David,Mark,Adam","so close to feeling intentional,-4,240,20","Don't like teddy bears in art. I could draw that house.,-20,60,20","Fun but a little cheesy,15,100,20","The colored teddy bear clashes with the color scheme.,-20,340,20","I think it's about child abuse. The teddy bear represents innocence and the dark shape is approaching it.,40,80,20","Hard contrast, but no emotions towards any of the objects.,-6,40,20","David","The colored teddy bear clashes with the color scheme.,-20,340,20","Cameron","Don't like teddy bears in art. I could draw that house.,-20,60,20","Hunter","so close to feeling intentional,-4,240,20","2"
"19290","","survey-text","88","530885","0.0-87.0-0.0","AR5RKWHR0DUCS","","","","{""Q0"":""this one is pretty, it make me feel at peace""}","","","","","","","","","","","","","","","","","","","","","","",""
"7023.699999988079","","image-slider-response","89","537916","0.0-88.0","AR5RKWHR0DUCS","","","","","42","","","","","","","","","","","","","","","","","","","","","",""
"4569","","image-button-response","90","542926","0.0-89.0","AR5RKWHR0DUCS","img_art/24.jpg","3","","","","","","","","","","","","","","","","","","","","","","","","",""
"675","","image-button-response","91","543609","0.0-90.0","AR5RKWHR0DUCS","img_art/24.jpg","3","","","","","","","","","","","","","","","","","","","","","","","","",""
"1065","","image-button-response","92","544677","0.0-91.0-0.0","AR5RKWHR0DUCS","img_art/24.jpg","2","","","","","","","","","","","","","","","","","","","","","","","","",""
"1142","","image-button-response","93","545825","0.0-92.0-0.0","AR5RKWHR0DUCS","img_art/24.jpg","5","","","","","","","","","","","","","","","","","","","","","","","","",""
"null","","html-keyboard-response","94","546830","0.0-93.0","AR5RKWHR0DUCS","<p style=""font-size: 48px;"">+</p>","","","","","null","allTrialResponses","1000","1","7","img_art/24.jpg","42","this one is pretty, it make me feel at peace","Hunter,Cameron,Luis,David,Jesus,Matthew","feels overdone, but still executed well,0,240,20","Mountain stream pineapple texture?,30,60,20","Love the natural vibe,50,400,20","Invokes a strong sense of nature, since the piece can interpreted as a stream or an abstracted bird.,40,340,20","I like the vivid colors and different textures,32,100,20","NOt quite Bob Ross, but still good.,30,120,20","David","Invokes a strong sense of nature, since the piece can interpreted as a stream or an abstracted bird.,40,340,20","Luis","Love the natural vibe,50,400,20","Matthew","NOt quite Bob Ross, but still good.,30,120,20","2"
"14142","","survey-text","95","560992","0.0-94.0-0.0","AR5RKWHR0DUCS","","","","{""Q0"":""it's boring ther is nothing to it""}","","","","","","","","","","","","","","","","","","","","","","",""
"4360.199999988079","","image-slider-response","96","565362","0.0-95.0","AR5RKWHR0DUCS","","","","","-44","","","","","","","","","","","","","","","","","","","","","",""
"3202","","image-button-response","97","570374","0.0-96.0","AR5RKWHR0DUCS","img_art/7.jpg","1","","","","","","","","","","","","","","","","","","","","","","","","",""
"507","","image-button-response","98","570890","0.0-97.0","AR5RKWHR0DUCS","img_art/7.jpg","1","","","","","","","","","","","","","","","","","","","","","","","","",""
"1175","","image-button-response","99","572074","0.0-98.0-0.0","AR5RKWHR0DUCS","img_art/7.jpg","4","","","","","","","","","","","","","","","","","","","","","","","","",""
"1933","","image-button-response","100","574016","0.0-99.0-0.0","AR5RKWHR0DUCS","img_art/7.jpg","2","","","","","","","","","","","","","","","","","","","","","","","","",""
"null","","html-keyboard-response","101","575523","0.0-100.0","AR5RKWHR0DUCS","<p style=""font-size: 48px;"">+</p>","","","","","null","allTrialResponses","1500","1","8","img_art/7.jpg","-44","it's boring ther is nothing to it","Christian,Antonio,Luis,David,Evan,Matthew","would love to take a closer look at the texture,15,140,20","Looks like dirt on the ground. Makes me feel unclean,-37,220,20","Not getting the vibe i would like from this,-30,400,20","I like how the image has a sense of history, since the style looks like it came from stone.,20,340,20","I feel confused, am I looking at a painting or a close up picture of some sort of fly stone?,-19,140,20","landscape of amrs, yawn.,-25,120,20","Antonio","Looks like dirt on the ground. Makes me feel unclean,-37,220,20","Evan","I feel confused, am I looking at a painting or a close up picture of some sort of fly stone?,-19,140,20","Luis","Not getting the vibe i would like from this,-30,400,20","2"
"24779","","survey-text","102","600324","0.0-101.0-0.0","AR5RKWHR0DUCS","","","","{""Q0"":""this one is kid of cool, it make me feel uneasy but in a good way""}","","","","","","","","","","","","","","","","","","","","","","",""
"5827.699999988079","","image-slider-response","103","606159","0.0-102.0","AR5RKWHR0DUCS","","","","","11","","","","","","","","","","","","","","","","","","","","","",""
"null","","image-button-response","104","611168","0.0-103.0","AR5RKWHR0DUCS","img_art/30.jpg","null","","","","","","","","","","","","","","","","","","","","","","","","",""
"1545","","image-button-response","105","612719","0.0-104.0","AR5RKWHR0DUCS","img_art/30.jpg","3","","","","","","","","","","","","","","","","","","","","","","","","",""
"1292","","image-button-response","106","614020","0.0-105.0-0.0","AR5RKWHR0DUCS","img_art/30.jpg","4","","","","","","","","","","","","","","","","","","","","","","","","",""
"1451","","image-button-response","107","615481","0.0-106.0-0.0","AR5RKWHR0DUCS","img_art/30.jpg","2","","","","","","","","","","","","","","","","","","","","","","","","",""
"null","","html-keyboard-response","108","616486","0.0-107.0","AR5RKWHR0DUCS","<p style=""font-size: 48px;"">+</p>","","","","","null","allTrialResponses","1000","1","9","img_art/30.jpg","11","this one is kid of cool, it make me feel uneasy but in a good way","Spencer,Antonio,Luis,Zachary,Evan,Kenneth","Interesting, almost an underworld of plant life,11,120,20","Fear. It looks like snakes in the picture,13,220,20","Flowing freely of the rest of the world,42,400,20","I like this one because I am a mom and it reminds me of a child finger-painting.,20,400,20","I really like the broad and colorful strokes,21,140,20","The red helps it to pop.,13,300,20","Zachary","I like this one because I am a mom and it reminds me of a child finger-painting.,20,400,20","Evan","I really like the broad and colorful strokes,21,140,20","Luis","Flowing freely of the rest of the world,42,400,20","2"
"27968","","survey-text","109","644463","0.0-108.0-0.0","AR5RKWHR0DUCS","","","","{""Q0"":""this one looks cool, it kind of makes me want to learn to paint""}","","","","","","","","","","","","","","","","","","","","","","",""
"4855.899999976158","","image-slider-response","110","649322","0.0-109.0","AR5RKWHR0DUCS","","","","","22","","","","","","","","","","","","","","","","","","","","","",""
"null","","image-button-response","111","654329","0.0-110.0","AR5RKWHR0DUCS","img_art/28.jpg","null","","","","","","","","","","","","","","","","","","","","","","","","",""
"148","","image-button-response","112","654483","0.0-111.0","AR5RKWHR0DUCS","img_art/28.jpg","4","","","","","","","","","","","","","","","","","","","","","","","","",""
"1057","","image-button-response","113","655543","0.0-112.0-0.0","AR5RKWHR0DUCS","img_art/28.jpg","0","","","","","","","","","","","","","","","","","","","","","","","","",""
"1466","","image-button-response","114","657018","0.0-113.0-0.0","AR5RKWHR0DUCS","img_art/28.jpg","1","","","","","","","","","","","","","","","","","","","","","","","","",""
"null","","html-keyboard-response","115","657525","0.0-114.0","AR5RKWHR0DUCS","<p style=""font-size: 48px;"">+</p>","","","","","null","allTrialResponses","500","1","10","img_art/28.jpg","22","this one looks cool, it kind of makes me want to learn to paint","Andrew,Jordan,Luis,Zachary,Evan,Scott","Doesn't give me an emotional response,0,160,20","A messy bed room,-7,160,20","Self-hate and abuse at home, unsafe and torturing,-30,400,20","Too muted and bland. I like my art to be vivid.,-11,400,20","It feels very blah,-10,140,20","I don't like the color choice,-30,20,20","Evan","It feels very blah,-10,140,20","Andrew","Doesn't give me an emotional response,0,160,20","Jordan","A messy bed room,-7,160,20","2"
"4958","","survey-text","116","662521","0.0-115.0-0.0","AR5RKWHR0DUCS","","","","{""Q0"":""our""}","","","","","","","","","","","","","","","","","","","","","","",""
"33103","","survey-text","117","695635","0.0-116.0-0.0","AR5RKWHR0DUCS","","","","{""Q0"":""really ugly, it makes me want to stop looking at it""}","","","","","","","","","","","","","","","","","","","","","","",""
"8184.699999988079","","image-slider-response","118","703828","0.0-117.0","AR5RKWHR0DUCS","","","","","-50","","","","","","","","","","","","","","","","","","","","","",""
"3893","","image-button-response","119","708836","0.0-118.0","AR5RKWHR0DUCS","img_art/4.jpg","5","","","","","","","","","","","","","","","","","","","","","","","","",""
"960","","image-button-response","120","709809","0.0-119.0","AR5RKWHR0DUCS","img_art/4.jpg","5","","","","","","","","","","","","","","","","","","","","","","","","",""
"1182","","image-button-response","121","710997","0.0-120.0-0.0","AR5RKWHR0DUCS","img_art/4.jpg","4","","","","","","","","","","","","","","","","","","","","","","","","",""
"1226","","image-button-response","122","712239","0.0-121.0-0.0","AR5RKWHR0DUCS","img_art/4.jpg","3","","","","","","","","","","","","","","","","","","","","","","","","",""
"null","","html-keyboard-response","123","713745","0.0-122.0","AR5RKWHR0DUCS","<p style=""font-size: 48px;"">+</p>","","","","","null","allTrialResponses","1500","1","11","img_art/4.jpg","-50","really ugly, it makes me want to stop looking at it","Andrew,Jordan,Corey,Jared,Evan,Michael","Reminds me of a first place trophy,30,160,20","A hand reaching for something it cannot obtain,-9,160,20","doesn't do anything for me,-4,260,20","it looks like a deformed hand,-9,400,20","I'm disappointed that such a simple piece, with very little effort spent, could be grouped with other detailed pieces,-31,140,20","Looks like a child did it.,-42,140,20","Michael","Looks like a child did it.,-42,140,20","Evan","I'm disappointed that such a simple piece, with very little effort spent, could be grouped with other detailed pieces,-31,140,20","Jared","it looks like a deformed hand,-9,400,20","2"
"16908","","survey-text","124","730661","0.0-123.0-0.0","AR5RKWHR0DUCS","","","","{""Q0"":""boring, not interesting at all""}","","","","","","","","","","","","","","","","","","","","","","",""
"5043.199999988079","","image-slider-response","125","735712","0.0-124.0","AR5RKWHR0DUCS","","","","","-47","","","","","","","","","","","","","","","","","","","","","",""
"3784","","image-button-response","126","740720","0.0-125.0","AR5RKWHR0DUCS","img_art/12.jpg","0","","","","","","","","","","","","","","","","","","","","","","","","",""
"752","","image-button-response","127","741476","0.0-126.0","AR5RKWHR0DUCS","img_art/12.jpg","0","","","","","","","","","","","","","","","","","","","","","","","","",""
"1705","","image-button-response","128","743189","0.0-127.0-0.0","AR5RKWHR0DUCS","img_art/12.jpg","3","","","","","","","","","","","","","","","","","","","","","","","","",""
"1324","","image-button-response","129","744521","0.0-128.0-0.0","AR5RKWHR0DUCS","img_art/12.jpg","2","","","","","","","","","","","","","","","","","","","","","","","","",""
"null","","html-keyboard-response","130","745024","0.0-129.0","AR5RKWHR0DUCS","<p style=""font-size: 48px;"">+</p>","","","","","null","allTrialResponses","500","1","12","img_art/12.jpg","-47","boring, not interesting at all","Christopher,John,James,Jared,Evan,Michael","i think it's a good piece but it doesn't appeal to me,-18,160,20","Its cool,reminiscent of Andy Warhol type of style,10,120,20","Don't like it or despise it,1,380,20","i dont see the point.,-19,400,20","It reminds me of the documentary Paris is Burning, though I'm not sure why,11,140,20","Not quite my style but there more of a pattern and it is interesting to look at.,15,140,20","Christopher","i think it's a good piece but it doesn't appeal to me,-18,160,20","Jared","i dont see the point.,-19,400,20","James","Don't like it or despise it,1,380,20","2"
"25611","","survey-text","131","770656","0.0-130.0-0.0","AR5RKWHR0DUCS","","","","{""Q0"":""it's ok i like the colors and texture""}","","","","","","","","","","","","","","","","","","","","","","",""
"6625.400000035763","","image-slider-response","132","777290","0.0-131.0","AR5RKWHR0DUCS","","","","","6","","","","","","","","","","","","","","","","","","","","","",""
"3680","","image-button-response","133","782300","0.0-132.0","AR5RKWHR0DUCS","img_art/1.jpg","5","","","","","","","","","","","","","","","","","","","","","","","","",""
"596","","image-button-response","134","782906","0.0-133.0","AR5RKWHR0DUCS","img_art/1.jpg","5","","","","","","","","","","","","","","","","","","","","","","","","",""
"1088","","image-button-response","135","784001","0.0-134.0-0.0","AR5RKWHR0DUCS","img_art/1.jpg","3","","","","","","","","","","","","","","","","","","","","","","","","",""
"1226","","image-button-response","136","785237","0.0-135.0-0.0","AR5RKWHR0DUCS","img_art/1.jpg","2","","","","","","","","","","","","","","","","","","","","","","","","",""
"null","","html-keyboard-response","137","785745","0.0-136.0","AR5RKWHR0DUCS","<p style=""font-size: 48px;"">+</p>","","","","","null","allTrialResponses","500","1","13","img_art/1.jpg","6","it's ok i like the colors and texture","Christopher,Jose,James,Jared,Garrett,Mitchell","it's boring despite all the colors,-2,160,20","Blurry but that's how emotions are a lot of the time.,27,200,20","It's very colorful, and I like it,11,380,20","there isnt anything clear to look at,-2,400,20","I think that this picture has nice colors and its pleasing to the eyes.,20,180,20","confused,animal like brain fog,0,180,20","Mitchell","confused,animal like brain fog,0,180,20","Jared","there isnt anything clear to look at,-2,400,20","James","It's very colorful, and I like it,11,380,20","2"
"21867","","survey-text","138","807635","0.0-137.0-0.0","AR5RKWHR0DUCS","","","","{""Q0"":""I like this one it's trippy and makes me feel kind of spacy""}","","","","","","","","","","","","","","","","","","","","","","",""
"5982.900000035763","","image-slider-response","139","813627","0.0-138.0","AR5RKWHR0DUCS","","","","","33","","","","","","","","","","","","","","","","","","","","","",""
"null","","image-button-response","140","819199","0.0-139.0","AR5RKWHR0DUCS","img_art/23.jpg","null","","","","","","","","","","","","","","","","","","","","","","","","",""
"2675","","image-button-response","141","821877","0.0-140.0","AR5RKWHR0DUCS","img_art/23.jpg","0","","","","","","","","","","","","","","","","","","","","","","","","",""
"1402","","image-button-response","142","823282","0.0-141.0-0.0","AR5RKWHR0DUCS","img_art/23.jpg","1","","","","","","","","","","","","","","","","","","","","","","","","",""
"1245","","image-button-response","143","824531","0.0-142.0-0.0","AR5RKWHR0DUCS","img_art/23.jpg","2","","","","","","","","","","","","","","","","","","","","","","","","",""
"null","","html-keyboard-response","144","825534","0.0-143.0","AR5RKWHR0DUCS","<p style=""font-size: 48px;"">+</p>","","","","","null","allTrialResponses","1000","1","14","img_art/23.jpg","33","I like this one it's trippy and makes me feel kind of spacy","Tanner,Ian,James,Jared,Nathan,Mitchell","fsiries, happy, spiritual,16,180,20","It's very colorful and different, the white looks like people dancing,26,260,20","I love the rainbow!,12,380,20","it makes me aggitated,-21,400,20","While I don't normally enjoy these color schemes all together, I kind of like this one,10,200,20","Partying, dancing, delusion, kaus.,10,180,20","Tanner","fsiries, happy, spiritual,16,180,20","Ian","It's very colorful and different, the white looks like people dancing,26,260,20","James","I love the rainbow!,12,380,20","2"
"17055","","survey-text","145","842627","0.0-144.0-0.0","AR5RKWHR0DUCS","","","","{""Q0"":""boring, i feel nothing looking at it""}","","","","","","","","","","","","","","","","","","","","","","",""
"5630.099999964237","","image-slider-response","146","848263","0.0-145.0","AR5RKWHR0DUCS","","","","","-1","","","","","","","","","","","","","","","","","","","","","",""
"null","","image-button-response","147","853934","0.0-146.0","AR5RKWHR0DUCS","img_art/22.jpg","null","","","","","","","","","","","","","","","","","","","","","","","","",""
"2281","","image-button-response","148","856232","0.0-147.0","AR5RKWHR0DUCS","img_art/22.jpg","4","","","","","","","","","","","","","","","","","","","","","","","","",""
"2647","","image-button-response","149","858883","0.0-148.0-0.0","AR5RKWHR0DUCS","img_art/22.jpg","3","","","","","","","","","","","","","","","","","","","","","","","","",""
"2035","","image-button-response","150","860924","0.0-149.0-0.0","AR5RKWHR0DUCS","img_art/22.jpg","0","","","","","","","","","","","","","","","","","","","","","","","","",""
"null","","html-keyboard-response","151","861434","0.0-150.0","AR5RKWHR0DUCS","<p style=""font-size: 48px;"">+</p>","","","","","null","allTrialResponses","500","1","15","img_art/22.jpg","-1","boring, i feel nothing looking at it","Tanner,Ian,James,Noah,Eric,Alejandro","fire, danger, resentful,-17,180,20","Its very warm, it reminds of someone not liking their painting so they destoryed it,26,260,20","Like the black key and the rainbow color theme.,31,380,20","displeasure - not a fan of the colour or the shapes,-18,260,20","I don't normally like bright colors, but I like them in this. Don't like the random black paint.,30,100,20","Beautiful use of chalk or pastels. Love the abstract nature.,35,80,20","Eric","I don't normally like bright colors, but I like them in this. Don't like the random black paint.,30,100,20","Noah","displeasure - not a fan of the colour or the shapes,-18,260,20","Tanner","fire, danger, resentful,-17,180,20","2"
"5637","","survey-text","152","867106","0.0-151.0-0.0","AR5RKWHR0DUCS","","","","{""Q0"":""course""}","","","","","","","","","","","","","","","","","","","","","","",""
"22589","","survey-text","153","889701","0.0-152.0-0.0","AR5RKWHR0DUCS","","","","{""Q0"":""it just looks like scribbles, it makes me confused""}","","","","","","","","","","","","","","","","","","","","","","",""
"5818.899999976158","","image-slider-response","154","895531","0.0-153.0","AR5RKWHR0DUCS","","","","","-24","","","","","","","","","","","","","","","","","","","","","",""
"3515","","image-button-response","155","900541","0.0-154.0","AR5RKWHR0DUCS","img_art/3.jpg","2","","","","","","","","","","","","","","","","","","","","","","","","",""
"221","","image-button-response","156","900769","0.0-155.0","AR5RKWHR0DUCS","img_art/3.jpg","2","","","","","","","","","","","","","","","","","","","","","","","","",""
"1144","","image-button-response","157","901920","0.0-156.0-0.0","AR5RKWHR0DUCS","img_art/3.jpg","5","","","","","","","","","","","","","","","","","","","","","","","","",""
"1225","","image-button-response","158","903152","0.0-157.0-0.0","AR5RKWHR0DUCS","img_art/3.jpg","1","","","","","","","","","","","","","","","","","","","","","","","","",""
"null","","html-keyboard-response","159","903658","0.0-158.0","AR5RKWHR0DUCS","<p style=""font-size: 48px;"">+</p>","","","","","null","allTrialResponses","500","1","16","img_art/3.jpg","-24","it just looks like scribbles, it makes me confused","Tanner,Alexis,Devin,Noah,Eric,Derek","anger, blood, death,-24,180,20","It looks like a child drawing,-29,140,20","Scribbly a bit too much,-30,380,20","I struggle to see the art,-20,260,20","This piece makes me think it has a backstory or a reason which I like.,5,100,20","Looks messy and too much for my eyes,-35,360,20","Devin","Scribbly a bit too much,-30,380,20","Derek","Looks messy and too much for my eyes,-35,360,20","Alexis","It looks like a child drawing,-29,140,20","2"
"22521","","survey-text","160","926208","0.0-159.0-0.0","AR5RKWHR0DUCS","","","","{""Q0"":""another one that makes me feel nothing""}","","","","","","","","","","","","","","","","","","","","","","",""
"11610.399999976158","","image-slider-response","161","937823","0.0-160.0","AR5RKWHR0DUCS","","","","","1","","","","","","","","","","","","","","","","","","","","","",""
"4996","","image-button-response","162","942833","0.0-161.0","AR5RKWHR0DUCS","img_art/6.jpg","3","","","","","","","","","","","","","","","","","","","","","","","","",""
"636","","image-button-response","163","943477","0.0-162.0","AR5RKWHR0DUCS","img_art/6.jpg","3","","","","","","","","","","","","","","","","","","","","","","","","",""
"3386","","image-button-response","164","946873","0.0-163.0-0.0","AR5RKWHR0DUCS","img_art/6.jpg","5","","","","","","","","","","","","","","","","","","","","","","","","",""
"1713","","image-button-response","165","948595","0.0-164.0-0.0","AR5RKWHR0DUCS","img_art/6.jpg","0","","","","","","","","","","","","","","","","","","","","","","","","",""
"null","","html-keyboard-response","166","949101","0.0-165.0","AR5RKWHR0DUCS","<p style=""font-size: 48px;"">+</p>","","","","","null","allTrialResponses","500","1","17","img_art/6.jpg","1","another one that makes me feel nothing","Bryce,Alexis,Devin,Mason,Dylan,Derek","Not very exciting.,-34,20,20","This looks like a crow, sort of bleak,-26,140,20","Looks a bit like a pickle or something?,-16,380,20","kids book cover, uninteresting.,-10,100,20","this is interesting and unique,11,40,20","Too basic for me,-20,360,20","Mason","kids book cover, uninteresting.,-10,100,20","Derek","Too basic for me,-20,360,20","Bryce","Not very exciting.,-34,20,20","2"
"24683","","survey-text","167","973795","0.0-166.0-0.0","AR5RKWHR0DUCS","","","","{""Q0"":""I like the colors blue always makes me feel calmer""}","","","","","","","","","","","","","","","","","","","","","","",""
"5528.899999976158","","image-slider-response","168","979331","0.0-167.0","AR5RKWHR0DUCS","","","","","19","","","","","","","","","","","","","","","","","","","","","",""
"3407","","image-button-response","169","984340","0.0-168.0","AR5RKWHR0DUCS","img_art/13.jpg","4","","","","","","","","","","","","","","","","","","","","","","","","",""
"954","","image-button-response","170","985304","0.0-169.0","AR5RKWHR0DUCS","img_art/13.jpg","4","","","","","","","","","","","","","","","","","","","","","","","","",""
"1932","","image-button-response","171","987244","0.0-170.0-0.0","AR5RKWHR0DUCS","img_art/13.jpg","1","","","","","","","","","","","","","","","","","","","","","","","","",""
"689","","image-button-response","172","987944","0.0-171.0-0.0","AR5RKWHR0DUCS","img_art/13.jpg","2","","","","","","","","","","","","","","","","","","","","","","","","",""
"null","","html-keyboard-response","173","989450","0.0-172.0","AR5RKWHR0DUCS","<p style=""font-size: 48px;"">+</p>","","","","","null","allTrialResponses","1500","1","18","img_art/13.jpg","19","I like the colors blue always makes me feel calmer","Bryce,Cole,Bryan,Mason,Devon,Derek","My favorite!,47,20,20","The blue colors are very calming. Reminds me of water,33,200,20","Love the colors, love the abstractness, love this Jackson Pollock type painting.,48,400,20","meh, 80's. retro,-9,100,20","I like this picture. The choice of colors are good,31,400,20","This looks like a staple bedroom or bathroom piece,41,360,20","Devon","I like this picture. The choice of colors are good,31,400,20","Cole","The blue colors are very calming. Reminds me of water,33,200,20","Bryan","Love the colors, love the abstractness, love this Jackson Pollock type painting.,48,400,20","2"
"16042","","survey-text","174","1005501","0.0-173.0-0.0","AR5RKWHR0DUCS","","","","{""Q0"":""this one is really cool it has an epic feeling to it""}","","","","","","","","","","","","","","","","","","","","","","",""
"7685.800000011921","","image-slider-response","175","1013189","0.0-174.0","AR5RKWHR0DUCS","","","","","49","","","","","","","","","","","","","","","","","","","","","",""
"3464","","image-button-response","176","1018194","0.0-175.0","AR5RKWHR0DUCS","img_art/18.jpg","4","","","","","","","","","","","","","","","","","","","","","","","","",""
"497","","image-button-response","177","1018694","0.0-176.0","AR5RKWHR0DUCS","img_art/18.jpg","4","","","","","","","","","","","","","","","","","","","","","","","","",""
"848","","image-button-response","178","1019548","0.0-177.0-0.0","AR5RKWHR0DUCS","img_art/18.jpg","5","","","","","","","","","","","","","","","","","","","","","","","","",""
"913","","image-button-response","179","1020465","0.0-178.0-0.0","AR5RKWHR0DUCS","img_art/18.jpg","2","","","","","","","","","","","","","","","","","","","","","","","","",""
"null","","html-keyboard-response","180","1021968","0.0-179.0","AR5RKWHR0DUCS","<p style=""font-size: 48px;"">+</p>","","","","","null","allTrialResponses","1500","1","19","img_art/18.jpg","49","this one is really cool it has an epic feeling to it","Nathaniel,Cole,Bryan,Isaac,Devon,Grant","Looks like a jumbled mess. I prefer a clearer picture,-18,220,20","Two people fighting with one watching,17,200,20","First saw sailing ship in bad weather but then saw woman in upper left - not sure what I'm seeing.,21,400,20","I like the detail but I wouldn't hang this up on my wall.,14,280,20","I really like this one - there seems to be a story behind it,32,400,20","This is a very energetic painting, and brings to mind scenes of battle.,50,200,20","Devon","I really like this one - there seems to be a story behind it,32,400,20","Grant","This is a very energetic painting, and brings to mind scenes of battle.,50,200,20","Bryan","First saw sailing ship in bad weather but then saw woman in upper left - not sure what I'm seeing.,21,400,20","2"
"20911","","survey-text","181","1042889","0.0-180.0-0.0","AR5RKWHR0DUCS","","","","{""Q0"":""this one is cool, makes me want to be out at sea""}","","","","","","","","","","","","","","","","","","","","","","",""
"8308.899999976158","","image-slider-response","182","1051213","0.0-181.0","AR5RKWHR0DUCS","","","","","34","","","","","","","","","","","","","","","","","","","","","",""
"null","","image-button-response","183","1057196","0.0-182.0","AR5RKWHR0DUCS","img_art/10.jpg","null","","","","","","","","","","","","","","","","","","","","","","","","",""
"6649","","image-button-response","184","1063850","0.0-183.0","AR5RKWHR0DUCS","img_art/10.jpg","5","","","","","","","","","","","","","","","","","","","","","","","","",""
"945","","image-button-response","185","1064808","0.0-184.0-0.0","AR5RKWHR0DUCS","img_art/10.jpg","4","","","","","","","","","","","","","","","","","","","","","","","","",""
"1081","","image-button-response","186","1065899","0.0-185.0-0.0","AR5RKWHR0DUCS","img_art/10.jpg","3","","","","","","","","","","","","","","","","","","","","","","","","",""
"null","","html-keyboard-response","187","1066406","0.0-186.0","AR5RKWHR0DUCS","<p style=""font-size: 48px;"">+</p>","","","","","null","allTrialResponses","500","1","20","img_art/10.jpg","34","this one is cool, makes me want to be out at sea","Robert,Taylor,Bryan,Colton,Devon,Grant","The black color is depressing.,-50,360,20","The roller coaster from hell !!!,-10,200,20","First impression was musical instrument then, because of the gray colors, death.,5,400,20","it looks very musical,24,220,20","awww... this looks very nice,32,400,20","I love the chaotic feel of the brush strokes.,35,200,20","Grant","I love the chaotic feel of the brush strokes.,35,200,20","Devon","awww... this looks very nice,32,400,20","Colton","it looks very musical,24,220,20","2"
"3453","","survey-text","188","1069875","0.0-187.0-0.0","AR5RKWHR0DUCS","","","","{""Q0"":""we""}","","","","","","","","","","","","","","","","","","","","","","",""
"24827","","survey-text","189","1094713","0.0-188.0-0.0","AR5RKWHR0DUCS","","","","{""Q0"":""this one irritates me, but I can't put my finger on why""}","","","","","","","","","","","","","","","","","","","","","","",""
"5617.200000047684","","image-slider-response","190","1100337","0.0-189.0","AR5RKWHR0DUCS","","","","","-27","","","","","","","","","","","","","","","","","","","","","",""
"3862","","image-button-response","191","1105343","0.0-190.0","AR5RKWHR0DUCS","img_art/11.jpg","2","","","","","","","","","","","","","","","","","","","","","","","","",""
"885","","image-button-response","192","1106234","0.0-191.0","AR5RKWHR0DUCS","img_art/11.jpg","2","","","","","","","","","","","","","","","","","","","","","","","","",""
"898","","image-button-response","193","1107134","0.0-192.0-0.0","AR5RKWHR0DUCS","img_art/11.jpg","0","","","","","","","","","","","","","","","","","","","","","","","","",""
"1128","","image-button-response","194","1108270","0.0-193.0-0.0","AR5RKWHR0DUCS","img_art/11.jpg","5","","","","","","","","","","","","","","","","","","","","","","","","",""
"null","","html-keyboard-response","195","1109775","0.0-194.0","AR5RKWHR0DUCS","<p style=""font-size: 48px;"">+</p>","","","","","null","allTrialResponses","1500","1","21","img_art/11.jpg","-27","this one irritates me, but I can't put my finger on why","Brendan,Jonathan,Caleb,Colton,Devon,Grant","i dont understand this painting,-1,340,20","Those vertical strokes are to die for and I love these colors !!!,50,140,20","Not quite as abstract as I'd like- It's clearly a dingy city.,-18,40,20","the wavy lines are nice and pleasing,13,220,20","a beautiful piece of art,33,400,20","This elicits no reaction in me.,0,200,20","Caleb","Not quite as abstract as I'd like- It's clearly a dingy city.,-18,40,20","Brendan","i dont understand this painting,-1,340,20","Grant","This elicits no reaction in me.,0,200,20","2"
"17711","","survey-text","196","1127513","0.0-195.0-0.0","AR5RKWHR0DUCS","","","","{""Q0"":""this on is ugly not much else to say""}","","","","","","","","","","","","","","","","","","","","","","",""
"4517.800000011921","","image-slider-response","197","1132034","0.0-196.0","AR5RKWHR0DUCS","","","","","-42","","","","","","","","","","","","","","","","","","","","","",""
"4642","","image-button-response","198","1137040","0.0-197.0","AR5RKWHR0DUCS","img_art/9.jpg","0","","","","","","","","","","","","","","","","","","","","","","","","",""
"822","","image-button-response","199","1137870","0.0-198.0","AR5RKWHR0DUCS","img_art/9.jpg","0","","","","","","","","","","","","","","","","","","","","","","","","",""
"1247","","image-button-response","200","1139124","0.0-199.0-0.0","AR5RKWHR0DUCS","img_art/9.jpg","2","","","","","","","","","","","","","","","","","","","","","","","","",""
"1273","","image-button-response","201","1140405","0.0-200.0-0.0","AR5RKWHR0DUCS","img_art/9.jpg","3","","","","","","","","","","","","","","","","","","","","","","","","",""
"null","","html-keyboard-response","202","1141911","0.0-201.0","AR5RKWHR0DUCS","<p style=""font-size: 48px;"">+</p>","","","","","null","allTrialResponses","1500","1","22","img_art/9.jpg","-42","this on is ugly not much else to say","Brendan,Dalton,Caleb,Jake,Justin,Grant","not my type of art,-33,340,20","a mother in bed surrounded by emotions,1,300,20","Unfinished, weird composition.,-34,40,20","The colors and image is ugly.,-7,360,20","It reminds me of an illustration for a fairy tale.,19,280,20","The colors are pretty, and remind me of a circus.,5,200,20","Brendan","not my type of art,-33,340,20","Caleb","Unfinished, weird composition.,-34,40,20","Jake","The colors and image is ugly.,-7,360,20","2"
"23041","","survey-text","203","1164976","0.0-202.0-0.0","AR5RKWHR0DUCS","","","","{""Q0"":""I like this one it makes me nostalgic for the schoolyard""}","","","","","","","","","","","","","","","","","","","","","","",""
"4934.199999988079","","image-slider-response","204","1169912","0.0-203.0","AR5RKWHR0DUCS","","","","","32","","","","","","","","","","","","","","","","","","","","","",""
"null","","image-button-response","205","1174916","0.0-204.0","AR5RKWHR0DUCS","img_art/29.jpg","null","","","","","","","","","","","","","","","","","","","","","","","","",""
"1738","","image-button-response","206","1176659","0.0-205.0","AR5RKWHR0DUCS","img_art/29.jpg","4","","","","","","","","","","","","","","","","","","","","","","","","",""
"1690","","image-button-response","207","1178359","0.0-206.0-0.0","AR5RKWHR0DUCS","img_art/29.jpg","3","","","","","","","","","","","","","","","","","","","","","","","","",""
"874","","image-button-response","208","1179246","0.0-207.0-0.0","AR5RKWHR0DUCS","img_art/29.jpg","5","","","","","","","","","","","","","","","","","","","","","","","","",""
"null","","html-keyboard-response","209","1180800","0.0-208.0","AR5RKWHR0DUCS","<p style=""font-size: 48px;"">+</p>","","","","","null","allTrialResponses","1500","1","23","img_art/29.jpg","32","I like this one it makes me nostalgic for the schoolyard","Brendan,Dakota,Caleb,Jake,Tristan,Luke","it looks like a prison,-33,340,20","this is not art to me - it's random collage,-45,280,20","Looks wrong. Like a real painting was vandalized.,-50,40,20","This is very gross and odd looking.,-8,360,20","The textures bring this painting alive. A window to another existence with infinite possibility.,25,300,20","it is difficult to look at but you can't look away,-25,20,20","Tristan","The textures bring this painting alive. A window to another existence with infinite possibility.,25,300,20","Jake","This is very gross and odd looking.,-8,360,20","Luke","it is difficult to look at but you can't look away,-25,20,20","2"
"26835","","survey-text","210","1207651","0.0-209.0-0.0","AR5RKWHR0DUCS","","","","{""Q0"":""this one makes me feel adventurous it looks like an alien planet""}","","","","","","","","","","","","","","","","","","","","","","",""
"4459.5","","image-slider-response","211","1212117","0.0-210.0","AR5RKWHR0DUCS","","","","","12","","","","","","","","","","","","","","","","","","","","","",""
"null","","image-button-response","212","1217195","0.0-211.0","AR5RKWHR0DUCS","img_art/20.jpg","null","","","","","","","","","","","","","","","","","","","","","","","","",""
"4213","","image-button-response","213","1221412","0.0-212.0","AR5RKWHR0DUCS","img_art/20.jpg","4","","","","","","","","","","","","","","","","","","","","","","","","",""
"1014","","image-button-response","214","1222438","0.0-213.0-0.0","AR5RKWHR0DUCS","img_art/20.jpg","1","","","","","","","","","","","","","","","","","","","","","","","","",""
"999","","image-button-response","215","1223443","0.0-214.0-0.0","AR5RKWHR0DUCS","img_art/20.jpg","2","","","","","","","","","","","","","","","","","","","","","","","","",""
"null","","html-keyboard-response","216","1223945","0.0-215.0","AR5RKWHR0DUCS","<p style=""font-size: 48px;"">+</p>","","","","","null","allTrialResponses","500","1","24","img_art/20.jpg","12","this one makes me feel adventurous it looks like an alien planet","Dustin,Lucas,Kyle,Jake,Tristan,Luke","I don't like it. Dark sky and black figures. White objects remind me of bones.,-30,20,20","Phenomenal painting of building.,25,380,20","This one is okay but I don't really care for it,5,340,20","It's too brash and loud and ugly.,-21,360,20","Elements that are more defined are incongruous to the soft and melting nature of this painting,5,300,20","it looks like a car crash which is depressing,-19,20,20","Tristan","Elements that are more defined are incongruous to the soft and melting nature of this painting,5,300,20","Lucas","Phenomenal painting of building.,25,380,20","Kyle","This one is okay but I don't really care for it,5,340,20","2"
"25656","","survey-text","217","1249627","0.0-216.0-0.0","AR5RKWHR0DUCS","","","","{""Q0"":""I like this one it's creepy, reminds me of a horror movie poster""}","","","","","","","","","","","","","","","","","","","","","","",""
"4894.900000035763","","image-slider-response","218","1254528","0.0-217.0","AR5RKWHR0DUCS","","","","","33","","","","","","","","","","","","","","","","","","","","","",""
"4191","","image-button-response","219","1259534","0.0-218.0","AR5RKWHR0DUCS","img_art/25.jpg","1","","","","","","","","","","","","","","","","","","","","","","","","",""
"474","","image-button-response","220","1260015","0.0-219.0","AR5RKWHR0DUCS","img_art/25.jpg","1","","","","","","","","","","","","","","","","","","","","","","","","",""
"882","","image-button-response","221","1260905","0.0-220.0-0.0","AR5RKWHR0DUCS","img_art/25.jpg","2","","","","","","","","","","","","","","","","","","","","","","","","",""
"1122","","image-button-response","222","1262042","0.0-221.0-0.0","AR5RKWHR0DUCS","img_art/25.jpg","3","","","","","","","","","","","","","","","","","","","","","","","","",""
"null","","html-keyboard-response","223","1263548","0.0-222.0","AR5RKWHR0DUCS","<p style=""font-size: 48px;"">+</p>","","","","","null","allTrialResponses","1500","1","25","img_art/25.jpg","33","I like this one it's creepy, reminds me of a horror movie poster","Seth,Lucas,Kyle,Jason,Tristan,Logan","This piece feels cultural. Like it represents something culturally.,22,60,20","Well-designed, interesting.,30,380,20","I liked it as it seems unique in a way,21,340,20","Love the simplicity and lines,20,20,20","The limited palette make this figure mysterious and interpret-able.,20,300,20","creeeeeppyyyyyyy but mad cool,-26,360,20","Lucas","Well-designed, interesting.,30,380,20","Kyle","I liked it as it seems unique in a way,21,340,20","Jason","Love the simplicity and lines,20,20,20","2"
"4154","","survey-text","224","1267734","0.0-223.0-0.0","AR5RKWHR0DUCS","","","","{""Q0"":""table""}","","","","","","","","","","","","","","","","","","","","","","",""
"27317","","survey-text","225","1295056","0.0-224.0-0.0","AR5RKWHR0DUCS","","","","{""Q0"":""it's ok it makes me feel like i am about to be attacked by crows""}","","","","","","","","","","","","","","","","","","","","","","",""
"4387.200000047684","","image-slider-response","226","1299447","0.0-225.0","AR5RKWHR0DUCS","","","","","19","","","","","","","","","","","","","","","","","","","","","",""
"4867","","image-button-response","227","1304458","0.0-226.0","AR5RKWHR0DUCS","img_art/15.jpg","0","","","","","","","","","","","","","","","","","","","","","","","","",""
"834","","image-button-response","228","1305298","0.0-227.0","AR5RKWHR0DUCS","img_art/15.jpg","0","","","","","","","","","","","","","","","","","","","","","","","","",""
"993","","image-button-response","229","1306294","0.0-228.0-0.0","AR5RKWHR0DUCS","img_art/15.jpg","2","","","","","","","","","","","","","","","","","","","","","","","","",""
"1532","","image-button-response","230","1307831","0.0-229.0-0.0","AR5RKWHR0DUCS","img_art/15.jpg","3","","","","","","","","","","","","","","","","","","","","","","","","",""
"null","","html-keyboard-response","231","1308838","0.0-230.0","AR5RKWHR0DUCS","<p style=""font-size: 48px;"">+</p>","","","","","null","allTrialResponses","1000","1","26","img_art/15.jpg","19","it's ok it makes me feel like i am about to be attacked by crows","Aaron,Lucas,Kyle,Jason,Charles,Elijah","I like how it's simple but beautiful.,40,20,20","I can't see the meaning of the painting.,-30,380,20","I like it as the colors complement each other well,21,340,20","Simplicity of colors is nice,11,20,20","it looks like lavender,10,100,20","Makes me feel weird,-16,80,20","Aaron","I like how it's simple but beautiful.,40,20,20","Kyle","I like it as the colors complement each other well,21,340,20","Jason","Simplicity of colors is nice,11,20,20","2"
"20095","","survey-text","232","1328944","0.0-231.0-0.0","AR5RKWHR0DUCS","","","","{""Q0"":""it's pretty but cool at the same time, i like it""}","","","","","","","","","","","","","","","","","","","","","","",""
"4490.300000011921","","image-slider-response","233","1333442","0.0-232.0","AR5RKWHR0DUCS","","","","","27","","","","","","","","","","","","","","","","","","","","","",""
"4125","","image-button-response","234","1338450","0.0-233.0","AR5RKWHR0DUCS","img_art/14.jpg","2","","","","","","","","","","","","","","","","","","","","","","","","",""
"381","","image-button-response","235","1338839","0.0-234.0","AR5RKWHR0DUCS","img_art/14.jpg","2","","","","","","","","","","","","","","","","","","","","","","","","",""
"846","","image-button-response","236","1339691","0.0-235.0-0.0","AR5RKWHR0DUCS","img_art/14.jpg","3","","","","","","","","","","","","","","","","","","","","","","","","",""
"833","","image-button-response","237","1340528","0.0-236.0-0.0","AR5RKWHR0DUCS","img_art/14.jpg","5","","","","","","","","","","","","","","","","","","","","","","","","",""
"null","","html-keyboard-response","238","1341031","0.0-237.0","AR5RKWHR0DUCS","<p style=""font-size: 48px;"">+</p>","","","","","null","allTrialResponses","500","1","27","img_art/14.jpg","27","it's pretty but cool at the same time, i like it","Aaron,Brandon,Kyle,Jason,Isaiah,Joseph","It reminds me of a tree in the desert.,15,20,20","Don't like the colors on this. Too simple,-20,320,20","The colors are nice and it reminds me of a shrub or tree,10,340,20","Focal point is interesting,5,20,20","I feel uncomfortable looking at this painting, it is a mess that needs to be cleaned up.,-16,300,20","I like that it looks like plants on a table, which reminds me of life.,4,220,20","Kyle","The colors are nice and it reminds me of a shrub or tree,10,340,20","Jason","Focal point is interesting,5,20,20","Joseph","I like that it looks like plants on a table, which reminds me of life.,4,220,20","2"
"17047","","survey-text","239","1358105","0.0-238.0-0.0","AR5RKWHR0DUCS","","","","{""Q0"":""this one is really cool it feels like a painting of hell""}","","","","","","","","","","","","","","","","","","","","","","",""
"8059.100000023842","","image-slider-response","240","1366168","0.0-239.0","AR5RKWHR0DUCS","","","","","45","","","","","","","","","","","","","","","","","","","","","",""
"4312","","image-button-response","241","1371174","0.0-240.0","AR5RKWHR0DUCS","img_art/8.jpg","0","","","","","","","","","","","","","","","","","","","","","","","","",""
"265","","image-button-response","242","1371445","0.0-241.0","AR5RKWHR0DUCS","img_art/8.jpg","0","","","","","","","","","","","","","","","","","","","","","","","","",""
"1054","","image-button-response","243","1372507","0.0-242.0-0.0","AR5RKWHR0DUCS","img_art/8.jpg","2","","","","","","","","","","","","","","","","","","","","","","","","",""
"1143","","image-button-response","244","1373658","0.0-243.0-0.0","AR5RKWHR0DUCS","img_art/8.jpg","3","","","","","","","","","","","","","","","","","","","","","","","","",""
"null","","html-keyboard-response","245","1375164","0.0-244.0","AR5RKWHR0DUCS","<p style=""font-size: 48px;"">+</p>","","","","","null","allTrialResponses","1500","1","28","img_art/8.jpg","45","this one is really cool it feels like a painting of hell","Jack,Edward,Kyle,Jason,Paul,Joseph","beautiful colors & details. love the surrealism & strange angle. the faces are interesting.,50,320,20","It's too boxy for my taste,-10,60,20","Not too bad despite the chaos.,16,340,20","There are a lot of different interesting elements in the picture.,12,20,20","The faces in the upper left show agony and contrast with the geometric shapes too much,-31,300,20","The faces are kinda freaky.,-17,220,20","Jack","beautiful colors & details. love the surrealism & strange angle. the faces are interesting.,50,320,20","Kyle","Not too bad despite the chaos.,16,340,20","Jason","There are a lot of different interesting elements in the picture.,12,20,20","2"
"14707","","survey-text","246","1389888","0.0-245.0-0.0","AR5RKWHR0DUCS","","","","{""Q0"":""boring, nothing about it stands out""}","","","","","","","","","","","","","","","","","","","","","","",""
"4720.600000023842","","image-slider-response","247","1394612","0.0-246.0","AR5RKWHR0DUCS","","","","","-39","","","","","","","","","","","","","","","","","","","","","",""
"4704","","image-button-response","248","1399622","0.0-247.0","AR5RKWHR0DUCS","img_art/26.jpg","5","","","","","","","","","","","","","","","","","","","","","","","","",""
"828","","image-button-response","249","1400458","0.0-248.0","AR5RKWHR0DUCS","img_art/26.jpg","3","","","","","","","","","","","","","","","","","","","","","","","","",""
"1080","","image-button-response","250","1401546","0.0-249.0-0.0","AR5RKWHR0DUCS","img_art/26.jpg","5","","","","","","","","","","","","","","","","","","","","","","","","",""
"1257","","image-button-response","251","1402809","0.0-250.0-0.0","AR5RKWHR0DUCS","img_art/26.jpg","1","","","","","","","","","","","","","","","","","","","","","","","","",""
"null","","html-keyboard-response","252","1403813","0.0-251.0","AR5RKWHR0DUCS","<p style=""font-size: 48px;"">+</p>","","","","","null","allTrialResponses","1000","1","29","img_art/26.jpg","-39","boring, nothing about it stands out","Jack,William,Kyle,Jason,Timothy,Travis","soft colors & brush work. very easy to look at. makes me happy.,50,320,20","feels a tad old,30,380,20","This seems like a quiet painting,11,340,20","The colors look faded and blurry,2,20,20","Very pleasent little scene,40,240,20","Neutral...nothing to say.,3,260,20","Jason","The colors look faded and blurry,2,20,20","Travis","Neutral...nothing to say.,3,260,20","William","feels a tad old,30,380,20","2"
"14272","","survey-text","253","1418114","0.0-252.0-0.0","AR5RKWHR0DUCS","","","","{""Q0"":""bad, it looks like vomit""}","","","","","","","","","","","","","","","","","","","","","","",""
"4905.699999988079","","image-slider-response","254","1423025","0.0-253.0","AR5RKWHR0DUCS","","","","","-50","","","","","","","","","","","","","","","","","","","","","",""
"4510","","image-button-response","255","1428033","0.0-254.0","AR5RKWHR0DUCS","img_art/2.jpg","3","","","","","","","","","","","","","","","","","","","","","","","","",""
"624","","image-button-response","256","1428663","0.0-255.0","AR5RKWHR0DUCS","img_art/2.jpg","3","","","","","","","","","","","","","","","","","","","","","","","","",""
"1940","","image-button-response","257","1430614","0.0-256.0-0.0","AR5RKWHR0DUCS","img_art/2.jpg","5","","","","","","","","","","","","","","","","","","","","","","","","",""
"763","","image-button-response","258","1431386","0.0-257.0-0.0","AR5RKWHR0DUCS","img_art/2.jpg","4","","","","","","","","","","","","","","","","","","","","","","","","",""
"null","","html-keyboard-response","259","1432392","0.0-258.0","AR5RKWHR0DUCS","<p style=""font-size: 48px;"">+</p>","","","","","null","allTrialResponses","1000","1","30","img_art/2.jpg","-50","bad, it looks like vomit","Ethan,William,Daniel,Jason,Jesse,Travis","This looks like a professional abstract drawing. I like the shapes.,7,120,20","I like the colors,22,380,20","Colors and space work but the top scribbled killed it.,11,320,20","Too jumbled and disorienting,-13,20,20","Looks childish and i dont like the texture,-25,80,20","I didn't like this it looked like a kindergardner painted it and the green was out of place.,-46,260,20","Jason","Too jumbled and disorienting,-13,20,20","Travis","I didn't like this it looked like a kindergardner painted it and the green was out of place.,-46,260,20","Jesse","Looks childish and i dont like the texture,-25,80,20","2"
"2769","","image-button-response_instructions","260","1435185","0.0-259.0","AR5RKWHR0DUCS","","0","instructions","","","","","","","","","","","","","","","","","","","","","","","",""
"1570","","image-button-response","261","1436777","0.0-260.0","AR5RKWHR0DUCS","","0","","","","","","","","","","","","","","","","","","","","","","","","",""
