"rt","url","trial_type","trial_index","time_elapsed","internal_node_id","participant_id","stimulus","button_pressed","Name","responses","response","key_press","variableName","fixationTime","condition","trial","photo","subjectRating","subjectResponse","agentsNames","agent_1_Response","agent_2_Response","agent_3_Response","agent_4_Response","agent_5_Response","agent_6_Response","kept_1_name","kept_1_response","kept_2_name","kept_2_response","kept_3_name","kept_3_response","errorCounter"
"17302","external_page_harvard.html","external-html","0","17388","0.0-0.0","ASVRLMDNQBUD9","","","","","","","","","","","","","","","","","","","","","","","","","","",""
"2169","","image-button-response","1","19559","0.0-1.0","ASVRLMDNQBUD9","","0","","","","","","","","","","","","","","","","","","","","","","","","",""
"3659","","image-button-response","2","23224","0.0-2.0-0.0","ASVRLMDNQBUD9","","1","phone","","","","","","","","","","","","","","","","","","","","","","","",""
"6517","","survey-text","3","29743","0.0-3.0-0.0","ASVRLMDNQBUD9","","","","{""Q0"":""ASVRLMDNQBUD9""}","","","","","","","","","","","","","","","","","","","","","","",""
"8558","","image-button-response_instructions","4","38304","0.0-4.0","ASVRLMDNQBUD9","","0","instructions","","","","","","","","","","","","","","","","","","","","","","","",""
"24112","","image-button-response_instructions","5","62418","0.0-5.0","ASVRLMDNQBUD9","img_art/ins/popularity/ins1.png","0","instructions","","","","","","","","","","","","","","","","","","","","","","","",""
"10839","","image-button-response_instructions","6","73259","0.0-6.0","ASVRLMDNQBUD9","img_art/ins/popularity/ins2.png","0","instructions","","","","","","","","","","","","","","","","","","","","","","","",""
"7617","","image-button-response_instructions","7","80879","0.0-7.0","ASVRLMDNQBUD9","img_art/ins/popularity/ins2Extreme.png","0","instructions","","","","","","","","","","","","","","","","","","","","","","","",""
"7767","","image-button-response_instructions","8","88648","0.0-8.0","ASVRLMDNQBUD9","img_art/ins/popularity/ins3KEEPpop.PNG","0","instructions","","","","","","","","","","","","","","","","","","","","","","","",""
"7468","","image-button-response_instructions","9","96117","0.0-9.0","ASVRLMDNQBUD9","img_art/ins/popularity/ins3ANamepop.PNG","0","instructions","","","","","","","","","","","","","","","","","","","","","","","",""
"5413","","image-button-response_instructions","10","101532","0.0-10.0","ASVRLMDNQBUD9","img_art/ins/popularity/ins3ARatingpop.png","0","instructions","","","","","","","","","","","","","","","","","","","","","","","",""
"3788","","image-button-response_instructions","11","105322","0.0-11.0","ASVRLMDNQBUD9","img_art/ins/popularity/ins3ATextpop.png","0","instructions","","","","","","","","","","","","","","","","","","","","","","","",""
"12703","","image-button-response_instructions","12","118027","0.0-12.0","ASVRLMDNQBUD9","img_art/ins/popularity/ins3ALikespop.png","0","instructions","","","","","","","","","","","","","","","","","","","","","","","",""
"28738","","image-button-response_instructions","13","146767","0.0-13.0","ASVRLMDNQBUD9","img_art/ins/popularity/ins3KEEPpop.PNG","0","instructions","","","","","","","","","","","","","","","","","","","","","","","",""
"11948","","image-button-response_instructions","14","158717","0.0-14.0","ASVRLMDNQBUD9","img_art/ins/popularity/ins3_5RED.png","0","instructions","","","","","","","","","","","","","","","","","","","","","","","",""
"7032","","image-button-response_instructions","15","165750","0.0-15.0","ASVRLMDNQBUD9","img_art/ins/popularity/ins3KEEPpop.PNG","0","instructions","","","","","","","","","","","","","","","","","","","","","","","",""
"16714","","image-button-response_instructions","16","182466","0.0-16.0","ASVRLMDNQBUD9","img_art/ins/popularity/ins4KEEPpop.PNG","0","instructions","","","","","","","","","","","","","","","","","","","","","","","",""
"7920","","image-button-response_instructions","17","190387","0.0-17.0","ASVRLMDNQBUD9","img_art/ins/popularity/ins5KEEPpop.PNG","0","instructions","","","","","","","","","","","","","","","","","","","","","","","",""
"2670","","image-button-response_instructions","18","193060","0.0-18.0","ASVRLMDNQBUD9","","0","instructions","","","","","","","","","","","","","","","","","","","","","","","",""
"7451","","survey-text","19","200549","0.0-19.0-0.0","ASVRLMDNQBUD9","","","","{""Q0"":""but""}","","","","","","","","","","","","","","","","","","","","","","",""
"29337","","survey-text","20","229889","0.0-20.0-0.0","ASVRLMDNQBUD9","","","","{""Q0"":""like water rushing over the land in a flood.""}","","","","","","","","","","","","","","","","","","","","","","",""
"7737","","image-slider-response","21","237629","0.0-21.0","ASVRLMDNQBUD9","","","","","-10","","","","","","","","","","","","","","","","","","","","","",""
"null","","image-button-response","22","242638","0.0-22.0","ASVRLMDNQBUD9","img_art/ins/1.jpg","null","","","","","","","","","","","","","","","","","","","","","","","","",""
"7683","","image-button-response","23","250325","0.0-23.0","ASVRLMDNQBUD9","img_art/ins/1.jpg","0","","","","","","","","","","","","","","","","","","","","","","","","",""
"10317","","image-button-response","24","260645","0.0-24.0-0.0","ASVRLMDNQBUD9","img_art/ins/1.jpg","3","","","","","","","","","","","","","","","","","","","","","","","","",""
"3211","","image-button-response","25","263860","0.0-25.0-0.0","ASVRLMDNQBUD9","img_art/ins/1.jpg","0","","","","","","","","","","","","","","","","","","","","","","","","",""
"7643","","image-button-response","26","276219","0.0-25.1-0.1","ASVRLMDNQBUD9","img_art/ins/1.jpg","1","","","","","","","","","","","","","","","","","","","","","","","","",""
"null","","html-keyboard-response","27","276724","0.0-26.0","ASVRLMDNQBUD9","<p style=""font-size: 48px;"">+</p>","","","","","null","allTrialResponses","500","1","-2","img_art/ins/1.jpg","-10","like water rushing over the land in a flood.","Adam,Alex,Ben,Carl,Daniel,Jack","Seems like doodles,-20,20,20","very creative work.,36,40,20","This color reminds me of poo,-46,60,20","very calming artwork,42,80,20","It looks like a murder scene.,-48,100,20","I like the sophisticated brushwork,40,120,20","Adam","Seems like doodles,-20,20,20","Carl","very calming artwork,42,80,20","Alex","very creative work.,36,40,20","2"
"42547","","survey-text","28","319277","0.0-27.0-0.0","ASVRLMDNQBUD9","","","","{""Q0"":""doesn't really capture much interest.""}","","","","","","","","","","","","","","","","","","","","","","",""
"6971.70000000298","","image-slider-response","29","326252","0.0-28.0","ASVRLMDNQBUD9","","","","","-20","","","","","","","","","","","","","","","","","","","","","",""
"null","","image-button-response","30","331257","0.0-29.0","ASVRLMDNQBUD9","img_art/ins/2.jpg","null","","","","","","","","","","","","","","","","","","","","","","","","",""
"6709","","image-button-response","31","337970","0.0-30.0","ASVRLMDNQBUD9","img_art/ins/2.jpg","5","","","","","","","","","","","","","","","","","","","","","","","","",""
"259","","image-button-response","32","338233","0.0-31.0-0.0","ASVRLMDNQBUD9","img_art/ins/2.jpg","5","","","","","","","","","","","","","","","","","","","","","","","","",""
"2475","","image-button-response","33","344579","0.0-31.1-0.1","ASVRLMDNQBUD9","img_art/ins/2.jpg","0","","","","","","","","","","","","","","","","","","","","","","","","",""
"7494","","image-button-response","34","352077","0.0-32.0-0.0","ASVRLMDNQBUD9","img_art/ins/2.jpg","1","","","","","","","","","","","","","","","","","","","","","","","","",""
"null","","html-keyboard-response","35","353581","0.0-33.0","ASVRLMDNQBUD9","<p style=""font-size: 48px;"">+</p>","","","","","null","allTrialResponses","1500","1","-1","img_art/ins/2.jpg","-20","doesn't really capture much interest.","Adam,Alex,James,Carl,John,Kyle","too much color,-18,20,20","I like the blocks of color arrangements,30,40,20","looks too angry,-50,140,20","I can feel the artist's passion in it,45,80,20","love the texture of paint,48,160,20","Idk, it is just annoying,-32,180,20","Kyle","Idk, it is just annoying,-32,180,20","Adam","too much color,-18,20,20","Alex","I like the blocks of color arrangements,30,40,20","4"
"32707","","survey-text","36","386296","0.0-34.0-0.0","ASVRLMDNQBUD9","","","","{""Q0"":""looks and feels cold with nice blues.""}","","","","","","","","","","","","","","","","","","","","","","",""
"6791.5","","image-slider-response","37","393091","0.0-35.0","ASVRLMDNQBUD9","","","","","14","","","","","","","","","","","","","","","","","","","","","",""
"4211","","image-button-response","38","398094","0.0-36.0","ASVRLMDNQBUD9","img_art/ins/3.jpg","3","","","","","","","","","","","","","","","","","","","","","","","","",""
"3613","","image-button-response","39","401711","0.0-37.0","ASVRLMDNQBUD9","img_art/ins/3.jpg","3","","","","","","","","","","","","","","","","","","","","","","","","",""
"3306","","image-button-response","40","405021","0.0-38.0-0.0","ASVRLMDNQBUD9","img_art/ins/3.jpg","1","","","","","","","","","","","","","","","","","","","","","","","","",""
"8687","","image-button-response","41","413711","0.0-39.0-0.0","ASVRLMDNQBUD9","img_art/ins/3.jpg","2","","","","","","","","","","","","","","","","","","","","","","","","",""
"null","","html-keyboard-response","42","414714","0.0-40.0","ASVRLMDNQBUD9","<p style=""font-size: 48px;"">+</p>","","","","","null","allTrialResponses","1000","1","0","img_art/ins/3.jpg","14","looks and feels cold with nice blues.","Adam,Alex,Sam,Mike,Ron,Kyle","My daily routine, it's depressing,-20,20,20","calming blue is very nice,36,40,20","I can feel a rainy day from this painting,18,240,20","enjoy the different shades of blue,22,200,20","It looks depressing,-26,220,20","It looks like a playground for bats,-36,180,20","Mike","enjoy the different shades of blue,22,200,20","Alex","calming blue is very nice,36,40,20","Sam","I can feel a rainy day from this painting,18,240,20","4"
"6230","","image-button-response_instructions","43","420951","0.0-41.0","ASVRLMDNQBUD9","","0","instructions","","","","","","","","","","","","","","","","","","","","","","","",""
"21547","","survey-likert","44","442501","0.0-42.0-0.0","ASVRLMDNQBUD9","","","","{""Q0"":"""",""Q1"":0,""Q2"":1}","","","","","","","","","","","","","","","","","","","","","","",""
"7213","","survey-text","45","449725","0.0-43.0-0.0","ASVRLMDNQBUD9","","","","{""Q0"":""rock""}","","","","","","","","","","","","","","","","","","","","","","",""
"26166","","survey-text","46","475894","0.0-44.0-0.0","ASVRLMDNQBUD9","","","","{""Q0"":""looks like real sand with glass in it""}","","","","","","","","","","","","","","","","","","","","","","",""
"4847.199999999255","","image-slider-response","47","480743","0.0-45.0","ASVRLMDNQBUD9","","","","","12","","","","","","","","","","","","","","","","","","","","","",""
"null","","image-button-response","48","485781","0.0-46.0","ASVRLMDNQBUD9","img_art/7.jpg","null","","","","","","","","","","","","","","","","","","","","","","","","",""
"161","","image-button-response","49","485944","0.0-47.0","ASVRLMDNQBUD9","img_art/7.jpg","1","","","","","","","","","","","","","","","","","","","","","","","","",""
"8486","","image-button-response","50","494434","0.0-48.0-0.0","ASVRLMDNQBUD9","img_art/7.jpg","3","","","","","","","","","","","","","","","","","","","","","","","","",""
"3169","","image-button-response","51","497609","0.0-49.0-0.0","ASVRLMDNQBUD9","img_art/7.jpg","5","","","","","","","","","","","","","","","","","","","","","","","","",""
"null","","html-keyboard-response","52","498127","0.0-50.0","ASVRLMDNQBUD9","<p style=""font-size: 48px;"">+</p>","","","","","null","allTrialResponses","500","1","1","img_art/7.jpg","12","looks like real sand with glass in it","Austin,Steven,Justin,Alejandro,Marcus,Peter","The picture is just random,-8,240,20","looks like the surface of the moon.,1,160,20","It looks like a wall, not really something I'd enjoy looking at.,-12,280,20","I thought I was looking at a satellite image of mars.,21,80,20","Looks like vomit, or chunky feces,-42,60,20","It's just like sand from the beach,2,320,20","Steven","looks like the surface of the moon.,1,160,20","Alejandro","I thought I was looking at a satellite image of mars.,21,80,20","Peter","It's just like sand from the beach,2,320,20","4"
"34001","","survey-text","53","532133","0.0-51.0-0.0","ASVRLMDNQBUD9","","","","{""Q0"":""doesn't seem to interesting to me""}","","","","","","","","","","","","","","","","","","","","","","",""
"6520.300000000745","","image-slider-response","54","538656","0.0-52.0","ASVRLMDNQBUD9","","","","","-30","","","","","","","","","","","","","","","","","","","","","",""
"4702","","image-button-response","55","543661","0.0-53.0","ASVRLMDNQBUD9","img_art/5.jpg","3","","","","","","","","","","","","","","","","","","","","","","","","",""
"3505","","image-button-response","56","547168","0.0-54.0","ASVRLMDNQBUD9","img_art/5.jpg","3","","","","","","","","","","","","","","","","","","","","","","","","",""
"3836","","image-button-response","57","551008","0.0-55.0-0.0","ASVRLMDNQBUD9","img_art/5.jpg","0","","","","","","","","","","","","","","","","","","","","","","","","",""
"3854","","image-button-response","58","554868","0.0-56.0-0.0","ASVRLMDNQBUD9","img_art/5.jpg","1","","","","","","","","","","","","","","","","","","","","","","","","",""
"null","","html-keyboard-response","59","555885","0.0-57.0","ASVRLMDNQBUD9","<p style=""font-size: 48px;"">+</p>","","","","","null","allTrialResponses","1000","1","2","img_art/5.jpg","-30","doesn't seem to interesting to me","Edward,Steven,Paul,Alejandro,Jeffrey,Peter","Pretty simple, I'm not sure what it's supposed to mean,14,60,20","I dont really get anything from this,-25,160,20","I like how simple it is and the pink brushstrokes are nice,27,300,20","Confused as to what the artist is attempting to do.,-50,80,20","positive colours; yellow calls attention,6,40,20","Bright and sunny,19,320,20","Alejandro","Confused as to what the artist is attempting to do.,-50,80,20","Edward","Pretty simple, I'm not sure what it's supposed to mean,14,60,20","Steven","I dont really get anything from this,-25,160,20","4"
"46240","","survey-text","60","602133","0.0-58.0-0.0","ASVRLMDNQBUD9","","","","{""Q0"":""like a tree growing wild shaping fingers. Creepy and bright.""}","","","","","","","","","","","","","","","","","","","","","","",""
"9009.39999999851","","image-slider-response","61","611146","0.0-59.0","ASVRLMDNQBUD9","","","","","-7","","","","","","","","","","","","","","","","","","","","","",""
"null","","image-button-response","62","616154","0.0-60.0","ASVRLMDNQBUD9","img_art/4.jpg","null","","","","","","","","","","","","","","","","","","","","","","","","",""
"7025","","image-button-response","63","623182","0.0-61.0","ASVRLMDNQBUD9","img_art/4.jpg","4","","","","","","","","","","","","","","","","","","","","","","","","",""
"11860","","image-button-response","64","635046","0.0-62.0-0.0","ASVRLMDNQBUD9","img_art/4.jpg","1","","","","","","","","","","","","","","","","","","","","","","","","",""
"10530","","image-button-response","65","645580","0.0-63.0-0.0","ASVRLMDNQBUD9","img_art/4.jpg","3","","","","","","","","","","","","","","","","","","","","","","","","",""
"null","","html-keyboard-response","66","647082","0.0-64.0","ASVRLMDNQBUD9","<p style=""font-size: 48px;"">+</p>","","","","","null","allTrialResponses","1500","1","3","img_art/4.jpg","-7","like a tree growing wild shaping fingers. Creepy and bright.","Edward,Steven,Carlos,Alejandro,Daniel,Gabriel","It reminds me of something a kid would make for their parents,13,60,20","The colors remind me of mcdonalds,-33,160,20","Movement. Snakes. Hair. The uncertainty makes my eye return.,21,80,20","Looks like finger nails from the Guinness world record book.,-30,80,20","Better version of a 7 year old who got lucky,-23,320,20","this is terrible,-49,160,20","Daniel","Better version of a 7 year old who got lucky,-23,320,20","Steven","The colors remind me of mcdonalds,-33,160,20","Alejandro","Looks like finger nails from the Guinness world record book.,-30,80,20","4"
"48675","","survey-text","67","695765","0.0-65.0-0.0","ASVRLMDNQBUD9","","","","{""Q0"":""branches with blue leaves on a night sky, kinda cool""}","","","","","","","","","","","","","","","","","","","","","","",""
"6093.5","","image-slider-response","68","701862","0.0-66.0","ASVRLMDNQBUD9","","","","","28","","","","","","","","","","","","","","","","","","","","","",""
"null","","image-button-response","69","706876","0.0-67.0","ASVRLMDNQBUD9","img_art/15.jpg","null","","","","","","","","","","","","","","","","","","","","","","","","",""
"10811","","image-button-response","70","717690","0.0-68.0","ASVRLMDNQBUD9","img_art/15.jpg","2","","","","","","","","","","","","","","","","","","","","","","","","",""
"7131","","image-button-response","71","724824","0.0-69.0-0.0","ASVRLMDNQBUD9","img_art/15.jpg","3","","","","","","","","","","","","","","","","","","","","","","","","",""
"7155","","image-button-response","72","731983","0.0-70.0-0.0","ASVRLMDNQBUD9","img_art/15.jpg","0","","","","","","","","","","","","","","","","","","","","","","","","",""
"null","","html-keyboard-response","73","732487","0.0-71.0","ASVRLMDNQBUD9","<p style=""font-size: 48px;"">+</p>","","","","","null","allTrialResponses","500","1","4","img_art/15.jpg","28","branches with blue leaves on a night sky, kinda cool","Juan,Steven,Angel,Alejandro,Daniel,Alexis","I don't even know what's going on here. Again, this is too abstract.,-21,260,20","I'm just not into it,-5,160,20","This is looking at a forest from above. I can see water and some pathways throughout. Nature.,20,180,20","The blotted black spots create a nice contrast between the brush strokes within the center and sides. I like it.,41,80,20","Dark, drab asymmetrical floral piece,-26,320,20","it is dark and gloomy,-9,140,20","Angel","This is looking at a forest from above. I can see water and some pathways throughout. Nature.,20,180,20","Alejandro","The blotted black spots create a nice contrast between the brush strokes within the center and sides. I like it.,41,80,20","Juan","I don't even know what's going on here. Again, this is too abstract.,-21,260,20","4"
"45163","","survey-text","74","777657","0.0-72.0-0.0","ASVRLMDNQBUD9","","","","{""Q0"":""nice colors blended well together reminds me of God of War in the small boat""}","","","","","","","","","","","","","","","","","","","","","","",""
"8438","","image-slider-response","75","786097","0.0-73.0","ASVRLMDNQBUD9","","","","","29","","","","","","","","","","","","","","","","","","","","","",""
"2898","","image-button-response","76","791101","0.0-74.0","ASVRLMDNQBUD9","img_art/21.jpg","4","","","","","","","","","","","","","","","","","","","","","","","","",""
"3747","","image-button-response","77","794850","0.0-75.0","ASVRLMDNQBUD9","img_art/21.jpg","4","","","","","","","","","","","","","","","","","","","","","","","","",""
"13374","","image-button-response","78","808227","0.0-76.0-0.0","ASVRLMDNQBUD9","img_art/21.jpg","0","","","","","","","","","","","","","","","","","","","","","","","","",""
"5172","","image-button-response","79","813403","0.0-77.0-0.0","ASVRLMDNQBUD9","img_art/21.jpg","3","","","","","","","","","","","","","","","","","","","","","","","","",""
"null","","html-keyboard-response","80","814905","0.0-78.0","ASVRLMDNQBUD9","<p style=""font-size: 48px;"">+</p>","","","","","null","allTrialResponses","1500","1","5","img_art/21.jpg","29","nice colors blended well together reminds me of God of War in the small boat","Juan,Sean,Angel,Alejandro,Adam,Brendan","The colors and softness work together to make something that's lovely.,42,260,20","my response to the picture is what is going on?,-13,40,20","This feels chaotic, like a battle or a storm.,-20,180,20","Feels like a clash between land and sea,31,80,20","I like color mix here,15,40,20","looks like a sea during some war,27,340,20","Adam","I like color mix here,15,40,20","Juan","The colors and softness work together to make something that's lovely.,42,260,20","Alejandro","Feels like a clash between land and sea,31,80,20","4"
"6506","","survey-text","81","821426","0.0-79.0-0.0","ASVRLMDNQBUD9","","","","{""Q0"":""sky""}","","","","","","","","","","","","","","","","","","","","","","",""
"43102","","survey-text","82","864531","0.0-80.0-0.0","ASVRLMDNQBUD9","","","","{""Q0"":""blue on black with white tossed in, kind of cool I guess""}","","","","","","","","","","","","","","","","","","","","","","",""
"5763","","image-slider-response","83","870297","0.0-81.0","ASVRLMDNQBUD9","","","","","4","","","","","","","","","","","","","","","","","","","","","",""
"null","","image-button-response","84","875303","0.0-82.0","ASVRLMDNQBUD9","img_art/13.jpg","null","","","","","","","","","","","","","","","","","","","","","","","","",""
"227","","image-button-response","85","875532","0.0-83.0","ASVRLMDNQBUD9","img_art/13.jpg","3","","","","","","","","","","","","","","","","","","","","","","","","",""
"3957","","image-button-response","86","879491","0.0-84.0-0.0","ASVRLMDNQBUD9","img_art/13.jpg","4","","","","","","","","","","","","","","","","","","","","","","","","",""
"6821","","image-button-response","87","886316","0.0-85.0-0.0","ASVRLMDNQBUD9","img_art/13.jpg","1","","","","","","","","","","","","","","","","","","","","","","","","",""
"null","","html-keyboard-response","88","886818","0.0-86.0","ASVRLMDNQBUD9","<p style=""font-size: 48px;"">+</p>","","","","","null","allTrialResponses","500","1","6","img_art/13.jpg","4","blue on black with white tossed in, kind of cool I guess","Juan,Kyle,Samuel,Alejandro,Adam,Thomas","I love the colors and the contrast between the different blues.,21,260,20","I like the colors together,17,340,20","eighties here we come,7,400,20","Reminiscent of Jackson Pollock and gives me a feeling of chaotic satisfaction,50,80,20","Generic mix of colors. Cool and messy.,10,40,20","Nothing about this stands out to me,-10,220,20","Alejandro","Reminiscent of Jackson Pollock and gives me a feeling of chaotic satisfaction,50,80,20","Adam","Generic mix of colors. Cool and messy.,10,40,20","Kyle","I like the colors together,17,340,20","4"
"51995","","survey-text","89","938820","0.0-87.0-0.0","ASVRLMDNQBUD9","","","","{""Q0"":""I feel like this is a thing I have no idea about""}","","","","","","","","","","","","","","","","","","","","","","",""
"3816.599999997765","","image-slider-response","90","942639","0.0-88.0","ASVRLMDNQBUD9","","","","","-26","","","","","","","","","","","","","","","","","","","","","",""
"null","","image-button-response","91","947654","0.0-89.0","ASVRLMDNQBUD9","img_art/29.jpg","null","","","","","","","","","","","","","","","","","","","","","","","","",""
"3902","","image-button-response","92","951559","0.0-90.0","ASVRLMDNQBUD9","img_art/29.jpg","4","","","","","","","","","","","","","","","","","","","","","","","","",""
"15112","","image-button-response","93","966674","0.0-91.0-0.0","ASVRLMDNQBUD9","img_art/29.jpg","3","","","","","","","","","","","","","","","","","","","","","","","","",""
"3116","","image-button-response","94","969794","0.0-92.0-0.0","ASVRLMDNQBUD9","img_art/29.jpg","2","","","","","","","","","","","","","","","","","","","","","","","","",""
"null","","html-keyboard-response","95","970809","0.0-93.0","ASVRLMDNQBUD9","<p style=""font-size: 48px;"">+</p>","","","","","null","allTrialResponses","1000","1","7","img_art/29.jpg","-26","I feel like this is a thing I have no idea about","Shane,Kyle,Alex,Alejandro,Adam,Luis","Darkness and torment,-50,80,20","I like the usage of blacks and greys in this,8,340,20","The texture really stands out, this is an interesting composition,6,100,20","Reminiscent of Jackson Pollock with a hint of abstract structure with the bordering.,32,80,20","Flash is too strong. Dislike the colors,-5,40,20","I love the representation of a mess,50,400,20","Adam","Flash is too strong. Dislike the colors,-5,40,20","Alejandro","Reminiscent of Jackson Pollock with a hint of abstract structure with the bordering.,32,80,20","Alex","The texture really stands out, this is an interesting composition,6,100,20","4"
"34078","","survey-text","96","1004894","0.0-94.0-0.0","ASVRLMDNQBUD9","","","","{""Q0"":""two people in blue maybe... It's ok I guess.""}","","","","","","","","","","","","","","","","","","","","","","",""
"6931.199999999255","","image-slider-response","97","1011827","0.0-95.0","ASVRLMDNQBUD9","","","","","3","","","","","","","","","","","","","","","","","","","","","",""
"null","","image-button-response","98","1016846","0.0-96.0","ASVRLMDNQBUD9","img_art/2.jpg","null","","","","","","","","","","","","","","","","","","","","","","","","",""
"9643","","image-button-response","99","1026493","0.0-97.0","ASVRLMDNQBUD9","img_art/2.jpg","3","","","","","","","","","","","","","","","","","","","","","","","","",""
"4177","","image-button-response","100","1030674","0.0-98.0-0.0","ASVRLMDNQBUD9","img_art/2.jpg","5","","","","","","","","","","","","","","","","","","","","","","","","",""
"2310","","image-button-response","101","1032988","0.0-99.0-0.0","ASVRLMDNQBUD9","img_art/2.jpg","0","","","","","","","","","","","","","","","","","","","","","","","","",""
"null","","html-keyboard-response","102","1033490","0.0-100.0","ASVRLMDNQBUD9","<p style=""font-size: 48px;"">+</p>","","","","","null","allTrialResponses","500","1","8","img_art/2.jpg","3","two people in blue maybe... It's ok I guess.","Devin,Caleb,Alex,Alejandro,Adam,Jeremy","I don't really like this style,-5,380,20","Very gross colors. What were they thinking?,-47,40,20","Don't like the puke green color and also too abstact,-14,100,20","Looks contrived and like someone tried to hard to make it abstract,-31,80,20","Hate the vomit green.,-31,40,20","Unhappy. I do not like it,-5,60,20","Alejandro","Looks contrived and like someone tried to hard to make it abstract,-31,80,20","Jeremy","Unhappy. I do not like it,-5,60,20","Devin","I don't really like this style,-5,380,20","4"
"32691","","survey-text","103","1066186","0.0-101.0-0.0","ASVRLMDNQBUD9","","","","{""Q0"":""feels like a nice autumn setting""}","","","","","","","","","","","","","","","","","","","","","","",""
"4942.10000000149","","image-slider-response","104","1071130","0.0-102.0","ASVRLMDNQBUD9","","","","","21","","","","","","","","","","","","","","","","","","","","","",""
"4608","","image-button-response","105","1076136","0.0-103.0","ASVRLMDNQBUD9","img_art/27.jpg","1","","","","","","","","","","","","","","","","","","","","","","","","",""
"7197","","image-button-response","106","1083336","0.0-104.0","ASVRLMDNQBUD9","img_art/27.jpg","2","","","","","","","","","","","","","","","","","","","","","","","","",""
"5153","","image-button-response","107","1088493","0.0-105.0-0.0","ASVRLMDNQBUD9","img_art/27.jpg","4","","","","","","","","","","","","","","","","","","","","","","","","",""
"4234","","image-button-response","108","1092731","0.0-106.0-0.0","ASVRLMDNQBUD9","img_art/27.jpg","1","","","","","","","","","","","","","","","","","","","","","","","","",""
"null","","html-keyboard-response","109","1093234","0.0-107.0","ASVRLMDNQBUD9","<p style=""font-size: 48px;"">+</p>","","","","","null","allTrialResponses","500","1","9","img_art/27.jpg","21","feels like a nice autumn setting","Devin,Nicholas,Joshua,Alejandro,Dakota,Jeremy","Looks like the green bits were added on later,-1,380,20","I like all it has going but i wouldnt put it in my house unless my child did it,25,240,20","Reminds me of something I'd see in a gold frame from the Eighties.,-9,240,20","Muddied and directionless. Like someone dragged a brush across the paper for the sake of doing something.,-50,80,20","feels like a bar scene, tucked away in the corner of a small town,-40,280,20","Pleased. Reminds me of a child drawing,46,60,20","Joshua","Reminds me of something I'd see in a gold frame from the Eighties.,-9,240,20","Dakota","feels like a bar scene, tucked away in the corner of a small town,-40,280,20","Nicholas","I like all it has going but i wouldnt put it in my house unless my child did it,25,240,20","4"
"34869","","survey-text","110","1128110","0.0-108.0-0.0","ASVRLMDNQBUD9","","","","{""Q0"":""lone tree growing, not enough to judge with.""}","","","","","","","","","","","","","","","","","","","","","","",""
"5552.20000000298","","image-slider-response","111","1133665","0.0-109.0","ASVRLMDNQBUD9","","","","","-11","","","","","","","","","","","","","","","","","","","","","",""
"4022","","image-button-response","112","1138669","0.0-110.0","ASVRLMDNQBUD9","img_art/6.jpg","1","","","","","","","","","","","","","","","","","","","","","","","","",""
"1529","","image-button-response","113","1140202","0.0-111.0","ASVRLMDNQBUD9","img_art/6.jpg","1","","","","","","","","","","","","","","","","","","","","","","","","",""
"6410","","image-button-response","114","1146615","0.0-112.0-0.0","ASVRLMDNQBUD9","img_art/6.jpg","5","","","","","","","","","","","","","","","","","","","","","","","","",""
"3506","","image-button-response","115","1150126","0.0-113.0-0.0","ASVRLMDNQBUD9","img_art/6.jpg","2","","","","","","","","","","","","","","","","","","","","","","","","",""
"null","","html-keyboard-response","116","1151635","0.0-114.0","ASVRLMDNQBUD9","<p style=""font-size: 48px;"">+</p>","","","","","null","allTrialResponses","1500","1","10","img_art/6.jpg","-11","lone tree growing, not enough to judge with.","Corey,Nicholas,Joshua,Ian,Dakota,Kevin","reminds me of a happy edgar allen poe poem,8,260,20","It isnt bad but sort of too bland,0,240,20","Looks like a bird. It's fine.,7,240,20","It's slightly unnerving to look at, it looks a little creepy/eerie,-16,260,20","graceful and light,35,280,20","Its the headless bird. But why?,21,320,20","Nicholas","It isnt bad but sort of too bland,0,240,20","Kevin","Its the headless bird. But why?,21,320,20","Joshua","Looks like a bird. It's fine.,7,240,20","4"
"5899","","survey-text","117","1157545","0.0-115.0-0.0","ASVRLMDNQBUD9","","","","{""Q0"":""our""}","","","","","","","","","","","","","","","","","","","","","","",""
"17107","","survey-text","118","1174654","0.0-116.0-0.0","ASVRLMDNQBUD9","","","","{""Q0"":""love the colors here""}","","","","","","","","","","","","","","","","","","","","","","",""
"6307.300000000745","","image-slider-response","119","1180964","0.0-117.0","ASVRLMDNQBUD9","","","","","37","","","","","","","","","","","","","","","","","","","","","",""
"null","","image-button-response","120","1185968","0.0-118.0","ASVRLMDNQBUD9","img_art/25.jpg","null","","","","","","","","","","","","","","","","","","","","","","","","",""
"1264","","image-button-response","121","1187236","0.0-119.0","ASVRLMDNQBUD9","img_art/25.jpg","0","","","","","","","","","","","","","","","","","","","","","","","","",""
"4436","","image-button-response","122","1191674","0.0-120.0-0.0","ASVRLMDNQBUD9","img_art/25.jpg","2","","","","","","","","","","","","","","","","","","","","","","","","",""
"3837","","image-button-response","123","1195515","0.0-121.0-0.0","ASVRLMDNQBUD9","img_art/25.jpg","4","","","","","","","","","","","","","","","","","","","","","","","","",""
"null","","html-keyboard-response","124","1197024","0.0-122.0","ASVRLMDNQBUD9","<p style=""font-size: 48px;"">+</p>","","","","","null","allTrialResponses","1500","1","11","img_art/25.jpg","37","love the colors here","Jason,Nicholas,Joshua,Spencer,Joseph,Kevin","Love the simplicity and lines,20,20,20","It is interesting but too creapy for me,-29,240,20","Looks like a voodoo figure in a New Orleans cemetery at night.,-5,240,20","I really like it, very simple, very tribal,38,120,20","Ghosts are NOT my thing.,-13,220,20","That on i find a bit creapy.,-19,320,20","Jason","Love the simplicity and lines,20,20,20","Joshua","Looks like a voodoo figure in a New Orleans cemetery at night.,-5,240,20","Joseph","Ghosts are NOT my thing.,-13,220,20","4"
"38077","","survey-text","125","1235112","0.0-123.0-0.0","ASVRLMDNQBUD9","","","","{""Q0"":""it's like one of those slide puzzles that piss people off a lot.""}","","","","","","","","","","","","","","","","","","","","","","",""
"8236.199999999255","","image-slider-response","126","1243351","0.0-124.0","ASVRLMDNQBUD9","","","","","-30","","","","","","","","","","","","","","","","","","","","","",""
"null","","image-button-response","127","1248355","0.0-125.0","ASVRLMDNQBUD9","img_art/12.jpg","null","","","","","","","","","","","","","","","","","","","","","","","","",""
"2324","","image-button-response","128","1250683","0.0-126.0","ASVRLMDNQBUD9","img_art/12.jpg","1","","","","","","","","","","","","","","","","","","","","","","","","",""
"602","","image-button-response","129","1251288","0.0-127.0-0.0","ASVRLMDNQBUD9","img_art/12.jpg","2","","","","","","","","","","","","","","","","","","","","","","","","",""
"1711","","image-button-response","130","1253002","0.0-128.0-0.0","ASVRLMDNQBUD9","img_art/12.jpg","0","","","","","","","","","","","","","","","","","","","","","","","","",""
"null","","html-keyboard-response","131","1254504","0.0-129.0","ASVRLMDNQBUD9","<p style=""font-size: 48px;"">+</p>","","","","","null","allTrialResponses","1500","1","12","img_art/12.jpg","-30","it's like one of those slide puzzles that piss people off a lot.","Jason,Jared,Joshua,Brandon,Joseph,Isaac","The shapes present in the picture make it very interesting,17,20,20","i dont see the point.,-19,400,20","I don't get this one. Doesn't evoke an emotional response.,-10,240,20","I like the cubic feel.,11,320,20","Yay! Lots of people, lots of lives.,25,220,20","I like the gradient of little color on the top to colorful on the bottom.,24,280,20","Jared","i dont see the point.,-19,400,20","Joshua","I don't get this one. Doesn't evoke an emotional response.,-10,240,20","Jason","The shapes present in the picture make it very interesting,17,20,20","4"
"27616","","survey-text","132","1282126","0.0-130.0-0.0","ASVRLMDNQBUD9","","","","{""Q0"":""cool wavey old British town or something""}","","","","","","","","","","","","","","","","","","","","","","",""
"5602.5","","image-slider-response","133","1287731","0.0-131.0","ASVRLMDNQBUD9","","","","","24","","","","","","","","","","","","","","","","","","","","","",""
"null","","image-button-response","134","1292747","0.0-132.0","ASVRLMDNQBUD9","img_art/11.jpg","null","","","","","","","","","","","","","","","","","","","","","","","","",""
"1332","","image-button-response","135","1294081","0.0-133.0","ASVRLMDNQBUD9","img_art/11.jpg","0","","","","","","","","","","","","","","","","","","","","","","","","",""
"5087","","image-button-response","136","1299172","0.0-134.0-0.0","ASVRLMDNQBUD9","img_art/11.jpg","2","","","","","","","","","","","","","","","","","","","","","","","","",""
"1722","","image-button-response","137","1300897","0.0-135.0-0.0","ASVRLMDNQBUD9","img_art/11.jpg","5","","","","","","","","","","","","","","","","","","","","","","","","",""
"null","","html-keyboard-response","138","1301399","0.0-136.0","ASVRLMDNQBUD9","<p style=""font-size: 48px;"">+</p>","","","","","null","allTrialResponses","500","1","13","img_art/11.jpg","24","cool wavey old British town or something","Jason,Jared,Joshua,Hunter,Christopher,Michael","Interesting use of color,9,20,20","i like the colors and patters and waves,5,400,20","Is interesting. Wouldn't bother me to have this hanging where I'd see it every day.,11,240,20","reminds me of home,5,240,20","i like the gray tones with black lines and bits of color,23,160,20","It's kind of cool and I see it looks clean.,22,140,20","Jason","Interesting use of color,9,20,20","Joshua","Is interesting. Wouldn't bother me to have this hanging where I'd see it every day.,11,240,20","Michael","It's kind of cool and I see it looks clean.,22,140,20","4"
"24210","","survey-text","139","1325615","0.0-137.0-0.0","ASVRLMDNQBUD9","","","","{""Q0"":""what is this, a town meeting?""}","","","","","","","","","","","","","","","","","","","","","","",""
"4891.699999999255","","image-slider-response","140","1330510","0.0-138.0","ASVRLMDNQBUD9","","","","","-29","","","","","","","","","","","","","","","","","","","","","",""
"null","","image-button-response","141","1335514","0.0-139.0","ASVRLMDNQBUD9","img_art/19.jpg","null","","","","","","","","","","","","","","","","","","","","","","","","",""
"1064","","image-button-response","142","1336581","0.0-140.0","ASVRLMDNQBUD9","img_art/19.jpg","1","","","","","","","","","","","","","","","","","","","","","","","","",""
"652","","image-button-response","143","1337235","0.0-141.0-0.0","ASVRLMDNQBUD9","img_art/19.jpg","2","","","","","","","","","","","","","","","","","","","","","","","","",""
"1682","","image-button-response","144","1338921","0.0-142.0-0.0","ASVRLMDNQBUD9","img_art/19.jpg","0","","","","","","","","","","","","","","","","","","","","","","","","",""
"null","","html-keyboard-response","145","1339435","0.0-143.0","ASVRLMDNQBUD9","<p style=""font-size: 48px;"">+</p>","","","","","null","allTrialResponses","500","1","14","img_art/19.jpg","-29","what is this, a town meeting?","Jason,David,Joshua,Cole,Ryan,Michael","The picture contains a lot of brown and weird drips,-4,20,20","The image doesn't really invoke any emotions strongly.,0,340,20","Just don't like this one.,-9,240,20","Its simple and the colors i like. It reminds me of chagall,34,200,20","Its just a nice painting, nothing too special but nothing negative,25,380,20","Loks like an amature did it, Not pleasing.,-45,140,20","David","The image doesn't really invoke any emotions strongly.,0,340,20","Joshua","Just don't like this one.,-9,240,20","Jason","The picture contains a lot of brown and weird drips,-4,20,20","4"
"41067","","survey-text","146","1380508","0.0-144.0-0.0","ASVRLMDNQBUD9","","","","{""Q0"":""someone's yard in autumn, it's fine.""}","","","","","","","","","","","","","","","","","","","","","","",""
"5703.300000000745","","image-slider-response","147","1386214","0.0-145.0","ASVRLMDNQBUD9","","","","","8","","","","","","","","","","","","","","","","","","","","","",""
"3858","","image-button-response","148","1391217","0.0-146.0","ASVRLMDNQBUD9","img_art/26.jpg","3","","","","","","","","","","","","","","","","","","","","","","","","",""
"1756","","image-button-response","149","1392976","0.0-147.0","ASVRLMDNQBUD9","img_art/26.jpg","1","","","","","","","","","","","","","","","","","","","","","","","","",""
"424","","image-button-response","150","1393404","0.0-148.0-0.0","ASVRLMDNQBUD9","img_art/26.jpg","0","","","","","","","","","","","","","","","","","","","","","","","","",""
"1512","","image-button-response","151","1394920","0.0-149.0-0.0","ASVRLMDNQBUD9","img_art/26.jpg","3","","","","","","","","","","","","","","","","","","","","","","","","",""
"null","","html-keyboard-response","152","1395422","0.0-150.0","ASVRLMDNQBUD9","<p style=""font-size: 48px;"">+</p>","","","","","null","allTrialResponses","500","1","15","img_art/26.jpg","8","someone's yard in autumn, it's fine.","Jason,David,Joshua,Zachary,Nathan,Trevor","The colors look faded and blurry,2,20,20","The piece doesn't really invoke anything for me.,0,340,20","This is boring.,-15,240,20","Pretty trees and bushes around fancy brown stones. I like the soft nature.,20,400,20","It's a little too yellow-y for me, I'm not a huge fan of the color schemes or setting it portrays.,-20,200,20","looks like a little kids painting,-17,280,20","David","The piece doesn't really invoke anything for me.,0,340,20","Jason","The colors look faded and blurry,2,20,20","Zachary","Pretty trees and bushes around fancy brown stones. I like the soft nature.,20,400,20","4"
"11135","","survey-text","153","1406570","0.0-151.0-0.0","ASVRLMDNQBUD9","","","","{""Q0"":""course""}","","","","","","","","","","","","","","","","","","","","","","",""
"20997","","survey-text","154","1427568","0.0-152.0-0.0","ASVRLMDNQBUD9","","","","{""Q0"":""to much going on here""}","","","","","","","","","","","","","","","","","","","","","","",""
"7237.60000000149","","image-slider-response","155","1434809","0.0-153.0","ASVRLMDNQBUD9","","","","","-39","","","","","","","","","","","","","","","","","","","","","",""
"4699","","image-button-response","156","1439813","0.0-154.0","ASVRLMDNQBUD9","img_art/23.jpg","5","","","","","","","","","","","","","","","","","","","","","","","","",""
"2262","","image-button-response","157","1442079","0.0-155.0","ASVRLMDNQBUD9","img_art/23.jpg","5","","","","","","","","","","","","","","","","","","","","","","","","",""
"1942","","image-button-response","158","1444024","0.0-156.0-0.0","ASVRLMDNQBUD9","img_art/23.jpg","2","","","","","","","","","","","","","","","","","","","","","","","","",""
"1632","","image-button-response","159","1445659","0.0-157.0-0.0","ASVRLMDNQBUD9","img_art/23.jpg","0","","","","","","","","","","","","","","","","","","","","","","","","",""
"null","","html-keyboard-response","160","1447174","0.0-158.0","ASVRLMDNQBUD9","<p style=""font-size: 48px;"">+</p>","","","","","null","allTrialResponses","1500","1","16","img_art/23.jpg","-39","to much going on here","Jason,David,Cameron,Zachary,Timothy,Anthony","Interesting contrast,9,20,20","I like the symmetrical design and how it portrays the liveliness of a musical environment.,30,340,20","looks like those paper chain things.,0,60,20","Vivid colors and the white in the middle looks like people dancing.,31,400,20","This feels so energized, i love it,50,240,20","The cluster of white silhouettes against the colorful background makes me feel uneasy for some reason,-36,200,20","Anthony","The cluster of white silhouettes against the colorful background makes me feel uneasy for some reason,-36,200,20","Cameron","looks like those paper chain things.,0,60,20","Jason","Interesting contrast,9,20,20","4"
"33883","","survey-text","161","1481068","0.0-159.0-0.0","ASVRLMDNQBUD9","","","","{""Q0"":""weird floating island, strange""}","","","","","","","","","","","","","","","","","","","","","","",""
"9416.60000000149","","image-slider-response","162","1490487","0.0-160.0","ASVRLMDNQBUD9","","","","","5","","","","","","","","","","","","","","","","","","","","","",""
"3287","","image-button-response","163","1495490","0.0-161.0","ASVRLMDNQBUD9","img_art/10.jpg","4","","","","","","","","","","","","","","","","","","","","","","","","",""
"3615","","image-button-response","164","1499108","0.0-162.0","ASVRLMDNQBUD9","img_art/10.jpg","4","","","","","","","","","","","","","","","","","","","","","","","","",""
"4295","","image-button-response","165","1503407","0.0-163.0-0.0","ASVRLMDNQBUD9","img_art/10.jpg","0","","","","","","","","","","","","","","","","","","","","","","","","",""
"45","","image-button-response","166","1503456","0.0-164.0-0.0","ASVRLMDNQBUD9","img_art/10.jpg","0","","","","","","","","","","","","","","","","","","","","","","","","",""
"3257","","image-button-response","167","1510283","0.0-164.1-0.1","ASVRLMDNQBUD9","img_art/10.jpg","5","","","","","","","","","","","","","","","","","","","","","","","","",""
"null","","html-keyboard-response","168","1510785","0.0-165.0","ASVRLMDNQBUD9","<p style=""font-size: 48px;"">+</p>","","","","","null","allTrialResponses","500","1","17","img_art/10.jpg","5","weird floating island, strange","Jason,Robert,Cameron,Tyler,Noah,Anthony","Picture looks smudged,-7,20,20","The black color is depressing.,-50,360,20","artistic cello piece?,30,60,20","In proper lighting I might enjoy this,11,320,20","not sure what to make of this one,0,260,20","I am neutral towards the artwork,1,200,20","Noah","not sure what to make of this one,0,260,20","Jason","Picture looks smudged,-7,20,20","Anthony","I am neutral towards the artwork,1,200,20","6"
"28261","","survey-text","169","1539061","0.0-166.0-0.0","ASVRLMDNQBUD9","","","","{""Q0"":""to bright for me, don't even understand it""}","","","","","","","","","","","","","","","","","","","","","","",""
"4981.39999999851","","image-slider-response","170","1544046","0.0-167.0","ASVRLMDNQBUD9","","","","","-30","","","","","","","","","","","","","","","","","","","","","",""
"null","","image-button-response","171","1549049","0.0-168.0","ASVRLMDNQBUD9","img_art/9.jpg","null","","","","","","","","","","","","","","","","","","","","","","","","",""
"1379","","image-button-response","172","1550430","0.0-169.0","ASVRLMDNQBUD9","img_art/9.jpg","1","","","","","","","","","","","","","","","","","","","","","","","","",""
"1882","","image-button-response","173","1552315","0.0-170.0-0.0","ASVRLMDNQBUD9","img_art/9.jpg","5","","","","","","","","","","","","","","","","","","","","","","","","",""
"1127","","image-button-response","174","1553446","0.0-171.0-0.0","ASVRLMDNQBUD9","img_art/9.jpg","4","","","","","","","","","","","","","","","","","","","","","","","","",""
"null","","html-keyboard-response","175","1554463","0.0-172.0","ASVRLMDNQBUD9","<p style=""font-size: 48px;"">+</p>","","","","","null","allTrialResponses","1000","1","18","img_art/9.jpg","-30","to bright for me, don't even understand it","Jason,Tristan,Cody,Jack,Noah,Anthony","Focal point is interesting,2,20,20","The busyness and harsh nature of the lines in this painting  mute my emotional response.,-10,300,20","Feels angry .....,-40,180,20","gorgeous colors, love the little details,42,320,20","while I don't dispute the art, it feels childish,-20,260,20","This piece is very boring to look at.,-27,200,20","Tristan","The busyness and harsh nature of the lines in this painting  mute my emotional response.,-10,300,20","Anthony","This piece is very boring to look at.,-27,200,20","Noah","while I don't dispute the art, it feels childish,-20,260,20","6"
"25447","","survey-text","176","1579920","0.0-173.0-0.0","ASVRLMDNQBUD9","","","","{""Q0"":""I think my kid made this in first grade""}","","","","","","","","","","","","","","","","","","","","","","",""
"6426.5","","image-slider-response","177","1586349","0.0-174.0","ASVRLMDNQBUD9","","","","","24","","","","","","","","","","","","","","","","","","","","","",""
"null","","image-button-response","178","1591354","0.0-175.0","ASVRLMDNQBUD9","img_art/3.jpg","null","","","","","","","","","","","","","","","","","","","","","","","","",""
"764","","image-button-response","179","1592122","0.0-176.0","ASVRLMDNQBUD9","img_art/3.jpg","0","","","","","","","","","","","","","","","","","","","","","","","","",""
"780","","image-button-response","180","1592905","0.0-177.0-0.0","ASVRLMDNQBUD9","img_art/3.jpg","1","","","","","","","","","","","","","","","","","","","","","","","","",""
"3793","","image-button-response","181","1596701","0.0-178.0-0.0","ASVRLMDNQBUD9","img_art/3.jpg","2","","","","","","","","","","","","","","","","","","","","","","","","",""
"null","","html-keyboard-response","182","1597217","0.0-179.0","ASVRLMDNQBUD9","<p style=""font-size: 48px;"">+</p>","","","","","null","allTrialResponses","500","1","19","img_art/3.jpg","24","I think my kid made this in first grade","Scott,Tristan,Christian,William,Noah,Anthony","I like that it's messy,14,20,20","i like the colors particulairly the contrast of foreground to background. Exciting and thoughtful.,10,300,20","sorry do not understand,-26,140,20","makes me think of anger,-33,380,20","I struggle to see the art,-20,260,20","This looks like something a child created in 5 minutes.,-50,200,20","Scott","I like that it's messy,14,20,20","Tristan","i like the colors particulairly the contrast of foreground to background. Exciting and thoughtful.,10,300,20","Christian","sorry do not understand,-26,140,20","6"
"21168","","survey-text","183","1618394","0.0-180.0-0.0","ASVRLMDNQBUD9","","","","{""Q0"":""colors are nicely blended""}","","","","","","","","","","","","","","","","","","","","","","",""
"5562.5","","image-slider-response","184","1623959","0.0-181.0","ASVRLMDNQBUD9","","","","","22","","","","","","","","","","","","","","","","","","","","","",""
"null","","image-button-response","185","1628962","0.0-182.0","ASVRLMDNQBUD9","img_art/22.jpg","null","","","","","","","","","","","","","","","","","","","","","","","","",""
"1669","","image-button-response","186","1630634","0.0-183.0","ASVRLMDNQBUD9","img_art/22.jpg","3","","","","","","","","","","","","","","","","","","","","","","","","",""
"908","","image-button-response","187","1631544","0.0-184.0-0.0","ASVRLMDNQBUD9","img_art/22.jpg","0","","","","","","","","","","","","","","","","","","","","","","","","",""
"3980","","image-button-response","188","1635527","0.0-185.0-0.0","ASVRLMDNQBUD9","img_art/22.jpg","2","","","","","","","","","","","","","","","","","","","","","","","","",""
"null","","html-keyboard-response","189","1636542","0.0-186.0","ASVRLMDNQBUD9","<p style=""font-size: 48px;"">+</p>","","","","","null","allTrialResponses","1000","1","20","img_art/22.jpg","22","colors are nicely blended","Scott,Tristan,Christian,Kenneth,Eric,Grant","really beautiful colors and contrast,30,20,20","I appreciate the shapes but the abundance of primary colors make it seem garrish.,-10,300,20","colorful water (in front of castle?),17,140,20","I really enjoy the blended colors.,20,300,20","I don't normally like bright colors, but I like them in this. Don't like the random black paint.,30,100,20","The way the colors seem to be reflected is a bit mesmerizing.,10,200,20","Kenneth","I really enjoy the blended colors.,20,300,20","Scott","really beautiful colors and contrast,30,20,20","Christian","colorful water (in front of castle?),17,140,20","6"
"10852","","survey-text","190","1647408","0.0-187.0-0.0","ASVRLMDNQBUD9","","","","{""Q0"":""we""}","","","","","","","","","","","","","","","","","","","","","","",""
"47596","","survey-text","191","1695007","0.0-188.0-0.0","ASVRLMDNQBUD9","","","","{""Q0"":""space ship almost wrecked that dude's house""}","","","","","","","","","","","","","","","","","","","","","","",""
"4452.5","","image-slider-response","192","1699462","0.0-189.0","ASVRLMDNQBUD9","","","","","22","","","","","","","","","","","","","","","","","","","","","",""
"4187","","image-button-response","193","1704467","0.0-190.0","ASVRLMDNQBUD9","img_art/20.jpg","3","","","","","","","","","","","","","","","","","","","","","","","","",""
"3293","","image-button-response","194","1707764","0.0-191.0","ASVRLMDNQBUD9","img_art/20.jpg","3","","","","","","","","","","","","","","","","","","","","","","","","",""
"5516","","image-button-response","195","1713284","0.0-192.0-0.0","ASVRLMDNQBUD9","img_art/20.jpg","5","","","","","","","","","","","","","","","","","","","","","","","","",""
"7315","","image-button-response","196","1720602","0.0-193.0-0.0","ASVRLMDNQBUD9","img_art/20.jpg","2","","","","","","","","","","","","","","","","","","","","","","","","",""
"null","","html-keyboard-response","197","1721113","0.0-194.0","ASVRLMDNQBUD9","<p style=""font-size: 48px;"">+</p>","","","","","null","allTrialResponses","500","1","21","img_art/20.jpg","22","space ship almost wrecked that dude's house","Scott,Bryce,Christian,Kenneth,Miguel,Derek","feels distorted and uncomfortable,-41,20,20","Kinda freaks me out.,-40,20,20","reminds me of georgia o'keeffe's skull,22,140,20","I want to like this more, but i wish it was more detailed. It's hard for me to see what it is.,5,300,20","It's ok. Very abstract.,18,160,20","I like the calming mood of this painting,35,360,20","Kenneth","I want to like this more, but i wish it was more detailed. It's hard for me to see what it is.,5,300,20","Derek","I like the calming mood of this painting,35,360,20","Christian","reminds me of georgia o'keeffe's skull,22,140,20","6"
"60594","","survey-text","198","1781721","0.0-195.0-0.0","ASVRLMDNQBUD9","","","","{""Q0"":""cool wizards tower with cool style""}","","","","","","","","","","","","","","","","","","","","","","",""
"5102.60000000149","","image-slider-response","199","1786826","0.0-196.0","ASVRLMDNQBUD9","","","","","13","","","","","","","","","","","","","","","","","","","","","",""
"3948","","image-button-response","200","1791829","0.0-197.0","ASVRLMDNQBUD9","img_art/8.jpg","4","","","","","","","","","","","","","","","","","","","","","","","","",""
"2104","","image-button-response","201","1793935","0.0-198.0","ASVRLMDNQBUD9","img_art/8.jpg","1","","","","","","","","","","","","","","","","","","","","","","","","",""
"2317","","image-button-response","202","1796255","0.0-199.0-0.0","ASVRLMDNQBUD9","img_art/8.jpg","3","","","","","","","","","","","","","","","","","","","","","","","","",""
"808","","image-button-response","203","1797066","0.0-200.0-0.0","ASVRLMDNQBUD9","img_art/8.jpg","4","","","","","","","","","","","","","","","","","","","","","","","","",""
"null","","html-keyboard-response","204","1798568","0.0-201.0","ASVRLMDNQBUD9","<p style=""font-size: 48px;"">+</p>","","","","","null","allTrialResponses","1500","1","22","img_art/8.jpg","13","cool wizards tower with cool style","Bryan,Shawn,Christian,Kenneth,Antonio,Derek","Like the colors & the imagery - old city, native peoples maybe.,20,400,20","Cheesy. A little too knock you over the dead with its message without making it emotional,-31,100,20","gives off inception vibes <3,50,140,20","Interesting, i really like the face and the moon. Realy detailed and you see something new with each look.,11,300,20","I love the colors in it and also the faces and door ways. Made me feel hopeful,35,220,20","It's simply gorgeous. This artist is very talented,50,360,20","Shawn","Cheesy. A little too knock you over the dead with its message without making it emotional,-31,100,20","Kenneth","Interesting, i really like the face and the moon. Realy detailed and you see something new with each look.,11,300,20","Antonio","I love the colors in it and also the faces and door ways. Made me feel hopeful,35,220,20","6"
"12878","","survey-text","205","1811456","0.0-202.0-0.0","ASVRLMDNQBUD9","","","","{""Q0"":""fishing in a dirty pond""}","","","","","","","","","","","","","","","","","","","","","","",""
"4819.099999997765","","image-slider-response","206","1816278","0.0-203.0","ASVRLMDNQBUD9","","","","","8","","","","","","","","","","","","","","","","","","","","","",""
"null","","image-button-response","207","1821283","0.0-204.0","ASVRLMDNQBUD9","img_art/1.jpg","null","","","","","","","","","","","","","","","","","","","","","","","","",""
"2729","","image-button-response","208","1824015","0.0-205.0","ASVRLMDNQBUD9","img_art/1.jpg","5","","","","","","","","","","","","","","","","","","","","","","","","",""
"2867","","image-button-response","209","1826885","0.0-206.0-0.0","ASVRLMDNQBUD9","img_art/1.jpg","1","","","","","","","","","","","","","","","","","","","","","","","","",""
"661","","image-button-response","210","1827549","0.0-207.0-0.0","ASVRLMDNQBUD9","img_art/1.jpg","0","","","","","","","","","","","","","","","","","","","","","","","","",""
"null","","html-keyboard-response","211","1828051","0.0-208.0","ASVRLMDNQBUD9","<p style=""font-size: 48px;"">+</p>","","","","","null","allTrialResponses","500","1","23","img_art/1.jpg","8","fishing in a dirty pond","John,Shawn,Patrick,Kenneth,Antonio,Garrett","Its okay,not great.,1,120,20","Powerful colors.,31,100,20","I feel uneasy looking at this,-41,280,20","I love colorful photos and I like this one a lot.,25,300,20","Felt nothing in response to this painting,3,220,20","I think that this picture has nice colors and its pleasing to the eyes.,20,180,20","Garrett","I think that this picture has nice colors and its pleasing to the eyes.,20,180,20","Shawn","Powerful colors.,31,100,20","John","Its okay,not great.,1,120,20","6"
"26275","","survey-text","212","1854334","0.0-209.0-0.0","ASVRLMDNQBUD9","","","","{""Q0"":""to white and bright for my tastes""}","","","","","","","","","","","","","","","","","","","","","","",""
"4877","","image-slider-response","213","1859214","0.0-210.0","ASVRLMDNQBUD9","","","","","-30","","","","","","","","","","","","","","","","","","","","","",""
"3807","","image-button-response","214","1864218","0.0-211.0","ASVRLMDNQBUD9","img_art/17.jpg","1","","","","","","","","","","","","","","","","","","","","","","","","",""
"5478","","image-button-response","215","1869700","0.0-212.0","ASVRLMDNQBUD9","img_art/17.jpg","4","","","","","","","","","","","","","","","","","","","","","","","","",""
"711","","image-button-response","216","1870414","0.0-213.0-0.0","ASVRLMDNQBUD9","img_art/17.jpg","3","","","","","","","","","","","","","","","","","","","","","","","","",""
"7011","","image-button-response","217","1877430","0.0-214.0-0.0","ASVRLMDNQBUD9","img_art/17.jpg","1","","","","","","","","","","","","","","","","","","","","","","","","",""
"null","","html-keyboard-response","218","1878433","0.0-215.0","ASVRLMDNQBUD9","<p style=""font-size: 48px;"">+</p>","","","","","null","allTrialResponses","1000","1","24","img_art/17.jpg","-30","to white and bright for my tastes","John,Shawn,Mitchell,Jose,Nathaniel,Garrett","It gorgeous and i love how the tree is almost 3 dimensional.So many elements to it.,50,120,20","Pretty but a little cheesy,-10,100,20","Nature coming to the inside of your space that you are locked into.,50,180,20","Looks like a weird blurry heaven again! I dig,32,200,20","I like the artistic sketching pattern.,24,220,20","I like the way the colors were used behind the tree. Makes the image colorful and interesting.,30,180,20","Nathaniel","I like the artistic sketching pattern.,24,220,20","Jose","Looks like a weird blurry heaven again! I dig,32,200,20","Shawn","Pretty but a little cheesy,-10,100,20","6"
"39327","","survey-text","219","1917767","0.0-216.0-0.0","ASVRLMDNQBUD9","","","","{""Q0"":""looks like a colorful table center piece.""}","","","","","","","","","","","","","","","","","","","","","","",""
"5600.5","","image-slider-response","220","1923370","0.0-217.0","ASVRLMDNQBUD9","","","","","4","","","","","","","","","","","","","","","","","","","","","",""
"null","","image-button-response","221","1928381","0.0-218.0","ASVRLMDNQBUD9","img_art/14.jpg","null","","","","","","","","","","","","","","","","","","","","","","","","",""
"1848","","image-button-response","222","1930232","0.0-219.0","ASVRLMDNQBUD9","img_art/14.jpg","4","","","","","","","","","","","","","","","","","","","","","","","","",""
"1477","","image-button-response","223","1931712","0.0-220.0-0.0","ASVRLMDNQBUD9","img_art/14.jpg","1","","","","","","","","","","","","","","","","","","","","","","","","",""
"698","","image-button-response","224","1932413","0.0-221.0-0.0","ASVRLMDNQBUD9","img_art/14.jpg","2","","","","","","","","","","","","","","","","","","","","","","","","",""
"null","","html-keyboard-response","225","1933416","0.0-222.0","ASVRLMDNQBUD9","<p style=""font-size: 48px;"">+</p>","","","","","null","allTrialResponses","1000","1","25","img_art/14.jpg","4","looks like a colorful table center piece.","Brian,Shawn,Jordan,Jose,Nathaniel,Connor","I don't care for the style,-38,380,20","Like the brushstrokes but not the composition,9,100,20","Reminds me of art class,22,160,20","I don't like the color red,30,200,20","Not quite the style I'd like, but it does have a certain air of emptiness.,12,220,20","Looks childish and basic,-42,240,20","Nathaniel","Not quite the style I'd like, but it does have a certain air of emptiness.,12,220,20","Shawn","Like the brushstrokes but not the composition,9,100,20","Jordan","Reminds me of art class,22,160,20","6"
"5748","","survey-text","226","1939187","0.0-223.0-0.0","ASVRLMDNQBUD9","","","","{""Q0"":""table""}","","","","","","","","","","","","","","","","","","","","","","",""
"19208","","survey-text","227","1958397","0.0-224.0-0.0","ASVRLMDNQBUD9","","","","{""Q0"":""looks like cutouts.""}","","","","","","","","","","","","","","","","","","","","","","",""
"5126.5","","image-slider-response","228","1963527","0.0-225.0","ASVRLMDNQBUD9","","","","","-21","","","","","","","","","","","","","","","","","","","","","",""
"4878","","image-button-response","229","1968531","0.0-226.0","ASVRLMDNQBUD9","img_art/16.jpg","2","","","","","","","","","","","","","","","","","","","","","","","","",""
"1752","","image-button-response","230","1970287","0.0-227.0","ASVRLMDNQBUD9","img_art/16.jpg","2","","","","","","","","","","","","","","","","","","","","","","","","",""
"1489","","image-button-response","231","1971778","0.0-228.0-0.0","ASVRLMDNQBUD9","img_art/16.jpg","5","","","","","","","","","","","","","","","","","","","","","","","","",""
"606","","image-button-response","232","1972387","0.0-229.0-0.0","ASVRLMDNQBUD9","img_art/16.jpg","4","","","","","","","","","","","","","","","","","","","","","","","","",""
"null","","html-keyboard-response","233","1973891","0.0-230.0","ASVRLMDNQBUD9","<p style=""font-size: 48px;"">+</p>","","","","","null","allTrialResponses","1500","1","26","img_art/16.jpg","-21","looks like cutouts.","Colton,Shawn,Jordan,Jesus,Nathaniel,Chase","the materials used are interesting,30,220,20","Fun but a little cheesy,15,100,20","The bear makes me very uncomfortable,-50,160,20","I like the mixture of images,23,100,20","Creeps me out. Like..really creeps me out.,-48,220,20","Seems very twisted and dark.,-35,120,20","Jordan","The bear makes me very uncomfortable,-50,160,20","Chase","Seems very twisted and dark.,-35,120,20","Nathaniel","Creeps me out. Like..really creeps me out.,-48,220,20","6"
"18447","","survey-text","234","1992346","0.0-231.0-0.0","ASVRLMDNQBUD9","","","","{""Q0"":""snakes in the water. Not a fan.""}","","","","","","","","","","","","","","","","","","","","","","",""
"6446.400000002235","","image-slider-response","235","1998794","0.0-232.0","ASVRLMDNQBUD9","","","","","-46","","","","","","","","","","","","","","","","","","","","","",""
"2444","","image-button-response","236","2003797","0.0-233.0","ASVRLMDNQBUD9","img_art/30.jpg","1","","","","","","","","","","","","","","","","","","","","","","","","",""
"1378","","image-button-response","237","2005178","0.0-234.0","ASVRLMDNQBUD9","img_art/30.jpg","1","","","","","","","","","","","","","","","","","","","","","","","","",""
"1070","","image-button-response","238","2006251","0.0-235.0-0.0","ASVRLMDNQBUD9","img_art/30.jpg","2","","","","","","","","","","","","","","","","","","","","","","","","",""
"1232","","image-button-response","239","2007487","0.0-236.0-0.0","ASVRLMDNQBUD9","img_art/30.jpg","5","","","","","","","","","","","","","","","","","","","","","","","","",""
"null","","html-keyboard-response","240","2007989","0.0-237.0","ASVRLMDNQBUD9","<p style=""font-size: 48px;"">+</p>","","","","","null","allTrialResponses","500","1","27","img_art/30.jpg","-46","snakes in the water. Not a fan.","Gregory,Logan,Jordan,Jonathan,Nathaniel,Chase","Cool design and contrast of colors,30,220,20","literally stupid I made this with as seen on tv products when I was 7,-42,360,20","Combination of colors arent good,-6,160,20","I like the softness of this but it doesn't make me feel that nice,5,140,20","No my favorite, but I do like the long strokes of color,11,220,20","Too dark and ugly with all the black smears,-20,120,20","Logan","literally stupid I made this with as seen on tv products when I was 7,-42,360,20","Jordan","Combination of colors arent good,-6,160,20","Chase","Too dark and ugly with all the black smears,-20,120,20","6"
"27498","","survey-text","241","2035495","0.0-238.0-0.0","ASVRLMDNQBUD9","","","","{""Q0"":""nice winter scene with birds and a tiger it looks like.""}","","","","","","","","","","","","","","","","","","","","","","",""
"5513","","image-slider-response","242","2041011","0.0-239.0","ASVRLMDNQBUD9","","","","","22","","","","","","","","","","","","","","","","","","","","","",""
"4041","","image-button-response","243","2046014","0.0-240.0","ASVRLMDNQBUD9","img_art/18.jpg","1","","","","","","","","","","","","","","","","","","","","","","","","",""
"1284","","image-button-response","244","2047302","0.0-241.0","ASVRLMDNQBUD9","img_art/18.jpg","1","","","","","","","","","","","","","","","","","","","","","","","","",""
"6369","","image-button-response","245","2053676","0.0-242.0-0.0","ASVRLMDNQBUD9","img_art/18.jpg","5","","","","","","","","","","","","","","","","","","","","","","","","",""
"6105","","image-button-response","246","2059785","0.0-243.0-0.0","ASVRLMDNQBUD9","img_art/18.jpg","0","","","","","","","","","","","","","","","","","","","","","","","","",""
"null","","html-keyboard-response","247","2061287","0.0-244.0","ASVRLMDNQBUD9","<p style=""font-size: 48px;"">+</p>","","","","","null","allTrialResponses","1500","1","28","img_art/18.jpg","22","nice winter scene with birds and a tiger it looks like.","Jake,Logan,Jordan,Jacob,Alexander,Chase","It looks grotesque and violent.,-50,360,20","Can't tell if I love it or hate it. That response warranted more than neutral so I gave it 20 but not sure,21,360,20","Interesting and capitvating to look at,19,160,20","I think this looks pretty cool, I can see what's kind of going on here.,22,340,20","Ghostly sea adventure.,20,120,20","Kinda neat, looks like cavalry, or a knight.,15,120,20","Logan","Can't tell if I love it or hate it. That response warranted more than neutral so I gave it 20 but not sure,21,360,20","Chase","Kinda neat, looks like cavalry, or a knight.,15,120,20","Jake","It looks grotesque and violent.,-50,360,20","6"
"25500","","survey-text","248","2086798","0.0-245.0-0.0","ASVRLMDNQBUD9","","","","{""Q0"":""like a waterfall, everyone likes waterfalls almost""}","","","","","","","","","","","","","","","","","","","","","","",""
"5573","","image-slider-response","249","2092373","0.0-246.0","ASVRLMDNQBUD9","","","","","30","","","","","","","","","","","","","","","","","","","","","",""
"3478","","image-button-response","250","2097377","0.0-247.0","ASVRLMDNQBUD9","img_art/24.jpg","3","","","","","","","","","","","","","","","","","","","","","","","","",""
"1114","","image-button-response","251","2098494","0.0-248.0","ASVRLMDNQBUD9","img_art/24.jpg","3","","","","","","","","","","","","","","","","","","","","","","","","",""
"4857","","image-button-response","252","2103354","0.0-249.0-0.0","ASVRLMDNQBUD9","img_art/24.jpg","2","","","","","","","","","","","","","","","","","","","","","","","","",""
"1220","","image-button-response","253","2104578","0.0-250.0-0.0","ASVRLMDNQBUD9","img_art/24.jpg","1","","","","","","","","","","","","","","","","","","","","","","","","",""
"null","","html-keyboard-response","254","2105080","0.0-251.0","ASVRLMDNQBUD9","<p style=""font-size: 48px;"">+</p>","","","","","null","allTrialResponses","500","1","29","img_art/24.jpg","30","like a waterfall, everyone likes waterfalls almost","Jake,Logan,Malik,Dustin,Isaiah,Chase","This looks ugly and simple, as if done by a young person.,-2,360,20","brick wall waterfall girl you think you got it all,50,360,20","Very nice textures and subject,38,40,20","I see a waterfall, which is relaxing and peaceful!  I like the blue coloring,30,20,20","I feel relaxed and happy, looking at the stream, but it feels hollow, like something is fake.,5,300,20","This one isn't that abstract. It clearly looks like a waterfall.,31,120,20","Dustin","I see a waterfall, which is relaxing and peaceful!  I like the blue coloring,30,20,20","Malik","Very nice textures and subject,38,40,20","Logan","brick wall waterfall girl you think you got it all,50,360,20","6"
"25041","","survey-text","255","2130133","0.0-252.0-0.0","ASVRLMDNQBUD9","","","","{""Q0"":""what exactly is this supposed to be""}","","","","","","","","","","","","","","","","","","","","","","",""
"6537.39999999851","","image-slider-response","256","2136673","0.0-253.0","ASVRLMDNQBUD9","","","","","-35","","","","","","","","","","","","","","","","","","","","","",""
"3550","","image-button-response","257","2141677","0.0-254.0","ASVRLMDNQBUD9","img_art/28.jpg","5","","","","","","","","","","","","","","","","","","","","","","","","",""
"1263","","image-button-response","258","2142944","0.0-255.0","ASVRLMDNQBUD9","img_art/28.jpg","5","","","","","","","","","","","","","","","","","","","","","","","","",""
"3868","","image-button-response","259","2146814","0.0-256.0-0.0","ASVRLMDNQBUD9","img_art/28.jpg","2","","","","","","","","","","","","","","","","","","","","","","","","",""
"1265","","image-button-response","260","2148082","0.0-257.0-0.0","ASVRLMDNQBUD9","img_art/28.jpg","0","","","","","","","","","","","","","","","","","","","","","","","","",""
"null","","html-keyboard-response","261","2148584","0.0-258.0","ASVRLMDNQBUD9","<p style=""font-size: 48px;"">+</p>","","","","","null","allTrialResponses","500","1","30","img_art/28.jpg","-35","what exactly is this supposed to be","Dalton,Logan,Malik,Dustin,Seth,Devon","not sure what i feel but it makes me feel uncomfortable,1,300,20","I wish I knew why I liked it, maybes its the pinky tones,36,360,20","Invokes curiosity, I want to know it's story.,15,40,20","Like the muted pink colors. However, the mood is sad because of the blurriness,22,20,20","I think this piece is interesting. I love the faces drawn into it.,29,60,20","i'm not too impressed with this one.,-10,400,20","Devon","i'm not too impressed with this one.,-10,400,20","Malik","Invokes curiosity, I want to know it's story.,15,40,20","Dalton","not sure what i feel but it makes me feel uncomfortable,1,300,20","6"
"4094","","image-button-response_instructions","262","2152687","0.0-259.0","ASVRLMDNQBUD9","","0","instructions","","","","","","","","","","","","","","","","","","","","","","","",""
"1425","","image-button-response","263","2154122","0.0-260.0","ASVRLMDNQBUD9","","0","","","","","","","","","","","","","","","","","","","","","","","","",""
