"rt","url","trial_type","trial_index","time_elapsed","internal_node_id","participant_id","stimulus","button_pressed","Name","responses","response","key_press","variableName","fixationTime","condition","trial","photo","subjectRating","subjectResponse","agentsNames","agent_1_Response","agent_2_Response","agent_3_Response","agent_4_Response","agent_5_Response","agent_6_Response","kept_1_name","kept_1_response","kept_2_name","kept_2_response","kept_3_name","kept_3_response","errorCounter"
"5806","external_page_harvard.html","external-html","0","5983","0.0-0.0","ATHDQYUL5JEH4","","","","","","","","","","","","","","","","","","","","","","","","","","",""
"1664","","image-button-response","1","7652","0.0-1.0","ATHDQYUL5JEH4","","0","","","","","","","","","","","","","","","","","","","","","","","","",""
"1990","","image-button-response","2","9652","0.0-2.0-0.0","ATHDQYUL5JEH4","","1","phone","","","","","","","","","","","","","","","","","","","","","","","",""
"5633","","survey-text","3","15288","0.0-3.0-0.0","ATHDQYUL5JEH4","","","","{""Q0"":""ATHDQYUL5JEH4""}","","","","","","","","","","","","","","","","","","","","","","",""
"11032","","image-button-response_instructions","4","26322","0.0-4.0","ATHDQYUL5JEH4","","0","instructions","","","","","","","","","","","","","","","","","","","","","","","",""
"16752","","image-button-response_instructions","5","43076","0.0-5.0","ATHDQYUL5JEH4","img_art/ins/popularity/ins1.png","0","instructions","","","","","","","","","","","","","","","","","","","","","","","",""
"6417","","image-button-response_instructions","6","49496","0.0-6.0","ATHDQYUL5JEH4","img_art/ins/popularity/ins2.png","0","instructions","","","","","","","","","","","","","","","","","","","","","","","",""
"6983","","image-button-response_instructions","7","56482","0.0-7.0","ATHDQYUL5JEH4","img_art/ins/popularity/ins2Extreme.png","0","instructions","","","","","","","","","","","","","","","","","","","","","","","",""
"23907","","image-button-response_instructions","8","80391","0.0-8.0","ATHDQYUL5JEH4","img_art/ins/popularity/ins3KEEPpop.PNG","0","instructions","","","","","","","","","","","","","","","","","","","","","","","",""
"5620","","image-button-response_instructions","9","86014","0.0-9.0","ATHDQYUL5JEH4","img_art/ins/popularity/ins3ANamepop.PNG","0","instructions","","","","","","","","","","","","","","","","","","","","","","","",""
"6171","","image-button-response_instructions","10","92187","0.0-10.0","ATHDQYUL5JEH4","img_art/ins/popularity/ins3ARatingpop.png","0","instructions","","","","","","","","","","","","","","","","","","","","","","","",""
"3503","","image-button-response_instructions","11","95692","0.0-11.0","ATHDQYUL5JEH4","img_art/ins/popularity/ins3ATextpop.png","0","instructions","","","","","","","","","","","","","","","","","","","","","","","",""
"6053","","image-button-response_instructions","12","101747","0.0-12.0","ATHDQYUL5JEH4","img_art/ins/popularity/ins3ALikespop.png","0","instructions","","","","","","","","","","","","","","","","","","","","","","","",""
"12261","","image-button-response_instructions","13","114010","0.0-13.0","ATHDQYUL5JEH4","img_art/ins/popularity/ins3KEEPpop.PNG","0","instructions","","","","","","","","","","","","","","","","","","","","","","","",""
"18929","","image-button-response_instructions","14","132943","0.0-14.0","ATHDQYUL5JEH4","img_art/ins/popularity/ins3_5RED.png","0","instructions","","","","","","","","","","","","","","","","","","","","","","","",""
"9167","","image-button-response_instructions","15","142112","0.0-15.0","ATHDQYUL5JEH4","img_art/ins/popularity/ins3KEEPpop.PNG","0","instructions","","","","","","","","","","","","","","","","","","","","","","","",""
"8560","","image-button-response_instructions","16","150672","0.0-16.0","ATHDQYUL5JEH4","img_art/ins/popularity/ins4KEEPpop.PNG","0","instructions","","","","","","","","","","","","","","","","","","","","","","","",""
"4108","","image-button-response_instructions","17","154783","0.0-17.0","ATHDQYUL5JEH4","img_art/ins/popularity/ins5KEEPpop.PNG","0","instructions","","","","","","","","","","","","","","","","","","","","","","","",""
"1923","","image-button-response_instructions","18","156707","0.0-18.0","ATHDQYUL5JEH4","","0","instructions","","","","","","","","","","","","","","","","","","","","","","","",""
"10300","","survey-text","19","167042","0.0-19.0-0.0","ATHDQYUL5JEH4","","","","{""Q0"":""but""}","","","","","","","","","","","","","","","","","","","","","","",""
"16321","","survey-text","20","183367","0.0-20.0-0.0","ATHDQYUL5JEH4","","","","{""Q0"":""Total Mess""}","","","","","","","","","","","","","","","","","","","","","","",""
"4553","","image-slider-response","21","187927","0.0-21.0","ATHDQYUL5JEH4","","","","","-29","","","","","","","","","","","","","","","","","","","","","",""
"null","","image-button-response","22","192933","0.0-22.0","ATHDQYUL5JEH4","img_art/ins/1.jpg","null","","","","","","","","","","","","","","","","","","","","","","","","",""
"3588","","image-button-response","23","196522","0.0-23.0","ATHDQYUL5JEH4","img_art/ins/1.jpg","0","","","","","","","","","","","","","","","","","","","","","","","","",""
"3435","","image-button-response","24","199962","0.0-24.0-0.0","ATHDQYUL5JEH4","img_art/ins/1.jpg","2","","","","","","","","","","","","","","","","","","","","","","","","",""
"2527","","image-button-response","25","202495","0.0-25.0-0.0","ATHDQYUL5JEH4","img_art/ins/1.jpg","4","","","","","","","","","","","","","","","","","","","","","","","","",""
"null","","html-keyboard-response","26","204006","0.0-26.0","ATHDQYUL5JEH4","<p style=""font-size: 48px;"">+</p>","","","","","null","allTrialResponses","1500","1","-2","img_art/ins/1.jpg","-29","Total Mess","Adam,Alex,Ben,Carl,Daniel,Jack","Seems like doodles,-20,20,20","very creative work.,36,40,20","This color reminds me of poo,-46,60,20","very calming artwork,42,80,20","It looks like a murder scene.,-48,100,20","I like the sophisticated brushwork,40,120,20","Adam","Seems like doodles,-20,20,20","Ben","This color reminds me of poo,-46,60,20","Daniel","It looks like a murder scene.,-48,100,20","0"
"11827","","survey-text","27","215842","0.0-27.0-0.0","ATHDQYUL5JEH4","","","","{""Q0"":""looks like Buildings""}","","","","","","","","","","","","","","","","","","","","","","",""
"7928","","image-slider-response","28","223777","0.0-28.0","ATHDQYUL5JEH4","","","","","18","","","","","","","","","","","","","","","","","","","","","",""
"3048","","image-button-response","29","228791","0.0-29.0","ATHDQYUL5JEH4","img_art/ins/2.jpg","1","","","","","","","","","","","","","","","","","","","","","","","","",""
"2274","","image-button-response","30","231069","0.0-30.0","ATHDQYUL5JEH4","img_art/ins/2.jpg","0","","","","","","","","","","","","","","","","","","","","","","","","",""
"1437","","image-button-response","31","232508","0.0-31.0-0.0","ATHDQYUL5JEH4","img_art/ins/2.jpg","1","","","","","","","","","","","","","","","","","","","","","","","","",""
"1515","","image-button-response","32","234028","0.0-32.0-0.0","ATHDQYUL5JEH4","img_art/ins/2.jpg","1","","","","","","","","","","","","","","","","","","","","","","","","",""
"6196","","image-button-response","33","246518","0.0-32.1-0.1","ATHDQYUL5JEH4","img_art/ins/2.jpg","5","","","","","","","","","","","","","","","","","","","","","","","","",""
"null","","html-keyboard-response","34","247037","0.0-33.0","ATHDQYUL5JEH4","<p style=""font-size: 48px;"">+</p>","","","","","null","allTrialResponses","500","1","-1","img_art/ins/2.jpg","18","looks like Buildings","Adam,John,Ben,James,Daniel,Kyle","too much color,-18,20,20","love the texture of paint,48,160,20","meaningless painting,-45,60,20","looks too angry,-50,140,20","One of my pet peevs,-48,100,20","Idk, it is just annoying,-32,180,20","Adam","too much color,-18,20,20","John","love the texture of paint,48,160,20","Kyle","Idk, it is just annoying,-32,180,20","2"
"13419","","survey-text","35","260461","0.0-34.0-0.0","ATHDQYUL5JEH4","","","","{""Q0"":""Calming Sensation""}","","","","","","","","","","","","","","","","","","","","","","",""
"3864","","image-slider-response","36","264327","0.0-35.0","ATHDQYUL5JEH4","","","","","21","","","","","","","","","","","","","","","","","","","","","",""
"3027","","image-button-response","37","269333","0.0-36.0","ATHDQYUL5JEH4","img_art/ins/3.jpg","1","","","","","","","","","","","","","","","","","","","","","","","","",""
"1856","","image-button-response","38","271193","0.0-37.0","ATHDQYUL5JEH4","img_art/ins/3.jpg","2","","","","","","","","","","","","","","","","","","","","","","","","",""
"4406","","image-button-response","39","275603","0.0-38.0-0.0","ATHDQYUL5JEH4","img_art/ins/3.jpg","3","","","","","","","","","","","","","","","","","","","","","","","","",""
"1914","","image-button-response","40","277520","0.0-39.0-0.0","ATHDQYUL5JEH4","img_art/ins/3.jpg","1","","","","","","","","","","","","","","","","","","","","","","","","",""
"null","","html-keyboard-response","41","279037","0.0-40.0","ATHDQYUL5JEH4","<p style=""font-size: 48px;"">+</p>","","","","","null","allTrialResponses","1500","1","0","img_art/ins/3.jpg","21","Calming Sensation","Adam,John,Sam,Mike,Ron,Kyle","My daily routine, it's depressing,-20,20,20","I like the overlapping of brushes,41,160,20","I can feel a rainy day from this painting,18,240,20","enjoy the different shades of blue,22,200,20","It looks depressing,-26,220,20","It looks like a playground for bats,-36,180,20","Sam","I can feel a rainy day from this painting,18,240,20","Mike","enjoy the different shades of blue,22,200,20","John","I like the overlapping of brushes,41,160,20","2"
"6069","","image-button-response_instructions","42","285113","0.0-41.0","ATHDQYUL5JEH4","","0","instructions","","","","","","","","","","","","","","","","","","","","","","","",""
"12542","","survey-likert","43","297659","0.0-42.0-0.0","ATHDQYUL5JEH4","","","","{""Q0"":"""",""Q1"":0,""Q2"":1}","","","","","","","","","","","","","","","","","","","","","","",""
"5550","","survey-text","44","303216","0.0-43.0-0.0","ATHDQYUL5JEH4","","","","{""Q0"":""rock""}","","","","","","","","","","","","","","","","","","","","","","",""
"22819","","survey-text","45","326040","0.0-44.0-0.0","ATHDQYUL5JEH4","","","","{""Q0"":""ancient Man with his tribe""}","","","","","","","","","","","","","","","","","","","","","","",""
"4956","","image-slider-response","46","331002","0.0-45.0","ATHDQYUL5JEH4","","","","","19","","","","","","","","","","","","","","","","","","","","","",""
"3982","","image-button-response","47","336042","0.0-46.0","ATHDQYUL5JEH4","img_art/25.jpg","1","","","","","","","","","","","","","","","","","","","","","","","","",""
"1586","","image-button-response","48","337643","0.0-47.0","ATHDQYUL5JEH4","img_art/25.jpg","5","","","","","","","","","","","","","","","","","","","","","","","","",""
"1145","","image-button-response","49","338792","0.0-48.0-0.0","ATHDQYUL5JEH4","img_art/25.jpg","3","","","","","","","","","","","","","","","","","","","","","","","","",""
"1307","","image-button-response","50","340102","0.0-49.0-0.0","ATHDQYUL5JEH4","img_art/25.jpg","1","","","","","","","","","","","","","","","","","","","","","","","","",""
"null","","html-keyboard-response","51","340614","0.0-50.0","ATHDQYUL5JEH4","<p style=""font-size: 48px;"">+</p>","","","","","null","allTrialResponses","500","1","1","img_art/25.jpg","19","ancient Man with his tribe","Christian,Alex,William,Jared,Travis,Justin","I'm sorry but I don't uderstand this,-20,140,20","I can get behind this but only because I like the green. it reminds me of a graveyard,11,100,20","makes me think of a scary movie,-20,380,20","the green is serene. the figure is scare crow like,7,400,20","I hate the colors and the scene,-46,260,20","It's a rather intriguing design,12,280,20","Justin","It's a rather intriguing design,12,280,20","Jared","the green is serene. the figure is scare crow like,7,400,20","Alex","I can get behind this but only because I like the green. it reminds me of a graveyard,11,100,20","2"
"21388","","survey-text","52","362008","0.0-51.0-0.0","ATHDQYUL5JEH4","","","","{""Q0"":""Looks like some letter but is nice""}","","","","","","","","","","","","","","","","","","","","","","",""
"4181","","image-slider-response","53","366193","0.0-52.0","ATHDQYUL5JEH4","","","","","17","","","","","","","","","","","","","","","","","","","","","",""
"2210","","image-button-response","54","371196","0.0-53.0","ATHDQYUL5JEH4","img_art/30.jpg","0","","","","","","","","","","","","","","","","","","","","","","","","",""
"1339","","image-button-response","55","372538","0.0-54.0","ATHDQYUL5JEH4","img_art/30.jpg","5","","","","","","","","","","","","","","","","","","","","","","","","",""
"2949","","image-button-response","56","375497","0.0-55.0-0.0","ATHDQYUL5JEH4","img_art/30.jpg","0","","","","","","","","","","","","","","","","","","","","","","","","",""
"2092","","image-button-response","57","377593","0.0-56.0-0.0","ATHDQYUL5JEH4","img_art/30.jpg","2","","","","","","","","","","","","","","","","","","","","","","","","",""
"null","","html-keyboard-response","58","379095","0.0-57.0","ATHDQYUL5JEH4","<p style=""font-size: 48px;"">+</p>","","","","","null","allTrialResponses","1500","1","2","img_art/30.jpg","17","Looks like some letter but is nice","Luke,Alex,Brian,Jared,Austin,Justin","the lines and colors look purposeful,18,20,20","Don't like it at all, looks like a someone smeared paint with their fingers,-25,100,20","this is probably part of a neat series, but the abstraction doesn't speak to me,-17,380,20","i dont like how the colors are mixed,-6,400,20","Love the bold brush strokes and the illusion it creates,50,240,20","The colors and the brushstrokes are interesting enough.,17,280,20","Justin","The colors and the brushstrokes are interesting enough.,17,280,20","Luke","the lines and colors look purposeful,18,20,20","Brian","this is probably part of a neat series, but the abstraction doesn't speak to me,-17,380,20","2"
"11257","","survey-text","59","390358","0.0-58.0-0.0","ATHDQYUL5JEH4","","","","{""Q0"":""Total Mess""}","","","","","","","","","","","","","","","","","","","","","","",""
"3026","","image-slider-response","60","393387","0.0-59.0","ATHDQYUL5JEH4","","","","","-22","","","","","","","","","","","","","","","","","","","","","",""
"2676","","image-button-response","61","398390","0.0-60.0","ATHDQYUL5JEH4","img_art/1.jpg","1","","","","","","","","","","","","","","","","","","","","","","","","",""
"1568","","image-button-response","62","399962","0.0-61.0","ATHDQYUL5JEH4","img_art/1.jpg","2","","","","","","","","","","","","","","","","","","","","","","","","",""
"1842","","image-button-response","63","401809","0.0-62.0-0.0","ATHDQYUL5JEH4","img_art/1.jpg","1","","","","","","","","","","","","","","","","","","","","","","","","",""
"5646","","image-button-response","64","407474","0.0-63.0-0.0","ATHDQYUL5JEH4","img_art/1.jpg","4","","","","","","","","","","","","","","","","","","","","","","","","",""
"null","","html-keyboard-response","65","408978","0.0-64.0","ATHDQYUL5JEH4","<p style=""font-size: 48px;"">+</p>","","","","","null","allTrialResponses","1500","1","3","img_art/1.jpg","-22","Total Mess","Luke,Peter,Brian,Gregory,Mark,Justin","it is very colorful and makes me happy,44,20,20","Nothing whatsoever,2,320,20","I don't feel like much is happening in this painting,-25,380,20","Looks like just a bunch of colors with no real point,-5,220,20","It just doesn't speak to me.,0,80,20","It reminds me of a sunset I once saw.,16,280,20","Brian","I don't feel like much is happening in this painting,-25,380,20","Peter","Nothing whatsoever,2,320,20","Mark","It just doesn't speak to me.,0,80,20","2"
"10467","","survey-text","66","419451","0.0-65.0-0.0","ATHDQYUL5JEH4","","","","{""Q0"":""Sea Art""}","","","","","","","","","","","","","","","","","","","","","","",""
"5078","","image-slider-response","67","424533","0.0-66.0","ATHDQYUL5JEH4","","","","","11","","","","","","","","","","","","","","","","","","","","","",""
"3761","","image-button-response","68","429535","0.0-67.0","ATHDQYUL5JEH4","img_art/10.jpg","3","","","","","","","","","","","","","","","","","","","","","","","","",""
"2240","","image-button-response","69","431781","0.0-68.0","ATHDQYUL5JEH4","img_art/10.jpg","2","","","","","","","","","","","","","","","","","","","","","","","","",""
"2363","","image-button-response","70","434149","0.0-69.0-0.0","ATHDQYUL5JEH4","img_art/10.jpg","1","","","","","","","","","","","","","","","","","","","","","","","","",""
"2630","","image-button-response","71","436783","0.0-70.0-0.0","ATHDQYUL5JEH4","img_art/10.jpg","3","","","","","","","","","","","","","","","","","","","","","","","","",""
"null","","html-keyboard-response","72","437785","0.0-71.0","ATHDQYUL5JEH4","<p style=""font-size: 48px;"">+</p>","","","","","null","allTrialResponses","1000","1","4","img_art/10.jpg","11","Sea Art","Derek,Peter,Brian,Cole,Mark,Jesse","Cute and has a vintage feel to it,45,360,20","I don't hate but don't like it because it looks like a oil slick,2,320,20","this is a good painting, but feels musical in a way that I don't connect with.,-14,380,20","It confuses me. I dont know whats going on,14,200,20","Kraken, and I love it.,39,80,20","It makes me think of music and i love the reflective aspect,29,80,20","Brian","this is a good painting, but feels musical in a way that I don't connect with.,-14,380,20","Peter","I don't hate but don't like it because it looks like a oil slick,2,320,20","Cole","It confuses me. I dont know whats going on,14,200,20","2"
"11436","","survey-text","73","449227","0.0-72.0-0.0","ATHDQYUL5JEH4","","","","{""Q0"":""Nature and River""}","","","","","","","","","","","","","","","","","","","","","","",""
"4005","","image-slider-response","74","453238","0.0-73.0","ATHDQYUL5JEH4","","","","","26","","","","","","","","","","","","","","","","","","","","","",""
"3277","","image-button-response","75","458254","0.0-74.0","ATHDQYUL5JEH4","img_art/24.jpg","4","","","","","","","","","","","","","","","","","","","","","","","","",""
"1314","","image-button-response","76","459572","0.0-75.0","ATHDQYUL5JEH4","img_art/24.jpg","1","","","","","","","","","","","","","","","","","","","","","","","","",""
"1592","","image-button-response","77","461167","0.0-76.0-0.0","ATHDQYUL5JEH4","img_art/24.jpg","0","","","","","","","","","","","","","","","","","","","","","","","","",""
"1982","","image-button-response","78","463153","0.0-77.0-0.0","ATHDQYUL5JEH4","img_art/24.jpg","4","","","","","","","","","","","","","","","","","","","","","","","","",""
"null","","html-keyboard-response","79","463677","0.0-78.0","ATHDQYUL5JEH4","<p style=""font-size: 48px;"">+</p>","","","","","null","allTrialResponses","500","1","5","img_art/24.jpg","26","Nature and River","Nathan,Peter,Brian,Cole,Taylor,Steven","Looks like a mystical type of forest/waterfall. Love it,40,200,20","Looks like a serene waterfall and woods,29,320,20","it's a nice stream, but I don't care for plain nature,-15,380,20","Abstract waterfall landscape. Confusing,-13,200,20","I actually like this one. You can tell what it is.,25,200,20","It's beautiful! I love it! I see a waterfall, and they are my favorite things in the world,50,160,20","Peter","Looks like a serene waterfall and woods,29,320,20","Nathan","Looks like a mystical type of forest/waterfall. Love it,40,200,20","Taylor","I actually like this one. You can tell what it is.,25,200,20","2"
"4479","","survey-text","80","468173","0.0-79.0-0.0","ATHDQYUL5JEH4","","","","{""Q0"":""sky""}","","","","","","","","","","","","","","","","","","","","","","",""
"21898","","survey-text","81","490074","0.0-80.0-0.0","ATHDQYUL5JEH4","","","","{""Q0"":""half good half do know what""}","","","","","","","","","","","","","","","","","","","","","","",""
"3914","","image-slider-response","82","493993","0.0-81.0","ATHDQYUL5JEH4","","","","","-13","","","","","","","","","","","","","","","","","","","","","",""
"null","","image-button-response","83","499006","0.0-82.0","ATHDQYUL5JEH4","img_art/16.jpg","null","","","","","","","","","","","","","","","","","","","","","","","","",""
"5105","","image-button-response","84","504118","0.0-83.0","ATHDQYUL5JEH4","img_art/16.jpg","5","","","","","","","","","","","","","","","","","","","","","","","","",""
"2015","","image-button-response","85","506138","0.0-84.0-0.0","ATHDQYUL5JEH4","img_art/16.jpg","1","","","","","","","","","","","","","","","","","","","","","","","","",""
"4816","","image-button-response","86","510960","0.0-85.0-0.0","ATHDQYUL5JEH4","img_art/16.jpg","4","","","","","","","","","","","","","","","","","","","","","","","","",""
"null","","html-keyboard-response","87","511974","0.0-86.0","ATHDQYUL5JEH4","<p style=""font-size: 48px;"">+</p>","","","","","null","allTrialResponses","1000","1","6","img_art/16.jpg","-13","half good half do know what","Nathan,Peter,Shawn,Timothy,Taylor,Jason","I enjoy how slightly strange this is, while seeming to still have some message,20,200,20","It's a little unsettling,2,320,20","Fun but a little cheesy,15,100,20","This feels like images of a painful childhood,-50,240,20","It is sick to put a teddy bear and a gun on the same piece of canvas.,-40,200,20","The bear is a weird choice,-22,20,20","Jason","The bear is a weird choice,-22,20,20","Peter","It's a little unsettling,2,320,20","Taylor","It is sick to put a teddy bear and a gun on the same piece of canvas.,-40,200,20","2"
"10646","","survey-text","88","522627","0.0-87.0-0.0","ATHDQYUL5JEH4","","","","{""Q0"":""Abstract Art""}","","","","","","","","","","","","","","","","","","","","","","",""
"3642","","image-slider-response","89","526272","0.0-88.0","ATHDQYUL5JEH4","","","","","22","","","","","","","","","","","","","","","","","","","","","",""
"4402","","image-button-response","90","531274","0.0-89.0","ATHDQYUL5JEH4","img_art/21.jpg","4","","","","","","","","","","","","","","","","","","","","","","","","",""
"2790","","image-button-response","91","534070","0.0-90.0","ATHDQYUL5JEH4","img_art/21.jpg","1","","","","","","","","","","","","","","","","","","","","","","","","",""
"2087","","image-button-response","92","536161","0.0-91.0-0.0","ATHDQYUL5JEH4","img_art/21.jpg","0","","","","","","","","","","","","","","","","","","","","","","","","",""
"2248","","image-button-response","93","538417","0.0-92.0-0.0","ATHDQYUL5JEH4","img_art/21.jpg","4","","","","","","","","","","","","","","","","","","","","","","","","",""
"null","","html-keyboard-response","94","539420","0.0-93.0","ATHDQYUL5JEH4","<p style=""font-size: 48px;"">+</p>","","","","","null","allTrialResponses","1000","1","7","img_art/21.jpg","22","Abstract Art","Blake,Peter,Jesus,Jordan,Taylor,Jason","ocean and rocks at the beach,11,280,20","I like the two sides meeting, like a movie scene,15,320,20","The shapes and colors are very interesting to look at.,41,100,20","Beautiful colors, remind me of my yoga studio,50,160,20","Remove the rocks(?) on the lower right.,5,200,20","The division in the picture is pleasing but the random white dots are distracting,12,20,20","Peter","I like the two sides meeting, like a movie scene,15,320,20","Blake","ocean and rocks at the beach,11,280,20","Taylor","Remove the rocks(?) on the lower right.,5,200,20","2"
"8922","","survey-text","95","548347","0.0-94.0-0.0","ATHDQYUL5JEH4","","","","{""Q0"":""Tree""}","","","","","","","","","","","","","","","","","","","","","","",""
"6490","","survey-text","96","556601","0.0-94.1-0.1","ATHDQYUL5JEH4","","","","{""Q0"":""Tree in the middle""}","","","","","","","","","","","","","","","","","","","","","","",""
"3231","","image-slider-response","97","559837","0.0-95.0","ATHDQYUL5JEH4","","","","","16","","","","","","","","","","","","","","","","","","","","","",""
"4506","","image-button-response","98","564849","0.0-96.0","ATHDQYUL5JEH4","img_art/14.jpg","1","","","","","","","","","","","","","","","","","","","","","","","","",""
"2665","","image-button-response","99","567517","0.0-97.0","ATHDQYUL5JEH4","img_art/14.jpg","0","","","","","","","","","","","","","","","","","","","","","","","","",""
"1567","","image-button-response","100","569088","0.0-98.0-0.0","ATHDQYUL5JEH4","img_art/14.jpg","1","","","","","","","","","","","","","","","","","","","","","","","","",""
"4674","","image-button-response","101","573767","0.0-99.0-0.0","ATHDQYUL5JEH4","img_art/14.jpg","5","","","","","","","","","","","","","","","","","","","","","","","","",""
"null","","html-keyboard-response","102","575271","0.0-100.0","ATHDQYUL5JEH4","<p style=""font-size: 48px;"">+</p>","","","","","null","allTrialResponses","1500","1","8","img_art/14.jpg","16","Tree in the middle","Blake,Peter,Corey,Alexis,Taylor,Noah","fuzzy and confused. ok then well,16,280,20","I like that it's like a snippet of a field in the desert,21,320,20","its okay. pretty bland but looks like nature,8,260,20","It looks like a table centerpiece,-22,140,20","Are they blowing up a tree?,-5,200,20","I enjoy what comes across as a playful take on nature themes,26,260,20","Blake","fuzzy and confused. ok then well,16,280,20","Peter","I like that it's like a snippet of a field in the desert,21,320,20","Noah","I enjoy what comes across as a playful take on nature themes,26,260,20","2"
"12571","","survey-text","103","587847","0.0-101.0-0.0","ATHDQYUL5JEH4","","","","{""Q0"":""Looks like a cake""}","","","","","","","","","","","","","","","","","","","","","","",""
"3914","","image-slider-response","104","591765","0.0-102.0","ATHDQYUL5JEH4","","","","","22","","","","","","","","","","","","","","","","","","","","","",""
"3224","","image-button-response","105","596771","0.0-103.0","ATHDQYUL5JEH4","img_art/29.jpg","2","","","","","","","","","","","","","","","","","","","","","","","","",""
"2912","","image-button-response","106","599688","0.0-104.0","ATHDQYUL5JEH4","img_art/29.jpg","0","","","","","","","","","","","","","","","","","","","","","","","","",""
"1852","","image-button-response","107","601543","0.0-105.0-0.0","ATHDQYUL5JEH4","img_art/29.jpg","3","","","","","","","","","","","","","","","","","","","","","","","","",""
"2498","","image-button-response","108","604044","0.0-106.0-0.0","ATHDQYUL5JEH4","img_art/29.jpg","2","","","","","","","","","","","","","","","","","","","","","","","","",""
"null","","html-keyboard-response","109","604552","0.0-107.0","ATHDQYUL5JEH4","<p style=""font-size: 48px;"">+</p>","","","","","null","allTrialResponses","500","1","9","img_art/29.jpg","22","Looks like a cake","Blake,Peter,Isaac,Christopher,Thomas,Noah","a hot fireplace with things to burn. warm,12,280,20","Looks like a jail cell,-15,320,20","It is intriguing but I don't like the red X.,6,280,20","it's interesting but not my style,9,160,20","Looks messy, but not in appealing way,-20,220,20","the mixed medium / collage annoys me,-19,260,20","Blake","a hot fireplace with things to burn. warm,12,280,20","Christopher","it's interesting but not my style,9,160,20","Isaac","It is intriguing but I don't like the red X.,6,280,20","2"
"9595","","survey-text","110","614154","0.0-108.0-0.0","ATHDQYUL5JEH4","","","","{""Q0"":""Stone pattern""}","","","","","","","","","","","","","","","","","","","","","","",""
"2967","","image-slider-response","111","617124","0.0-109.0","ATHDQYUL5JEH4","","","","","21","","","","","","","","","","","","","","","","","","","","","",""
"1731","","image-button-response","112","622148","0.0-110.0","ATHDQYUL5JEH4","img_art/7.jpg","4","","","","","","","","","","","","","","","","","","","","","","","","",""
"1340","","image-button-response","113","623491","0.0-111.0","ATHDQYUL5JEH4","img_art/7.jpg","3","","","","","","","","","","","","","","","","","","","","","","","","",""
"795","","image-button-response","114","624290","0.0-112.0-0.0","ATHDQYUL5JEH4","img_art/7.jpg","4","","","","","","","","","","","","","","","","","","","","","","","","",""
"1576","","image-button-response","115","625871","0.0-113.0-0.0","ATHDQYUL5JEH4","img_art/7.jpg","1","","","","","","","","","","","","","","","","","","","","","","","","",""
"null","","html-keyboard-response","116","627381","0.0-114.0","ATHDQYUL5JEH4","<p style=""font-size: 48px;"">+</p>","","","","","null","allTrialResponses","1500","1","10","img_art/7.jpg","21","Stone pattern","Blake,David,Isaac,Christopher,Brett,Bryan","hot desert with big rocks.,-19,280,20","I like how the image has a sense of history, since the style looks like it came from stone.,20,340,20","It looks more like wallpaper rather than a painting.,-27,280,20","i kind of like this, it looks like a photo of a planet's surface,16,160,20","No particular reaction to this,10,360,20","Makes me itch - looks like a closeup of an ant colony or something.,-1,400,20","Christopher","i kind of like this, it looks like a photo of a planet's surface,16,160,20","Brett","No particular reaction to this,10,360,20","David","I like how the image has a sense of history, since the style looks like it came from stone.,20,340,20","2"
"4641","","survey-text","117","632035","0.0-115.0-0.0","ATHDQYUL5JEH4","","","","{""Q0"":""our""}","","","","","","","","","","","","","","","","","","","","","","",""
"8959","","survey-text","118","640998","0.0-116.0-0.0","ATHDQYUL5JEH4","","","","{""Q0"":""Modern Art""}","","","","","","","","","","","","","","","","","","","","","","",""
"3388","","image-slider-response","119","644389","0.0-117.0","ATHDQYUL5JEH4","","","","","31","","","","","","","","","","","","","","","","","","","","","",""
"1992","","image-button-response","120","649391","0.0-118.0","ATHDQYUL5JEH4","img_art/11.jpg","3","","","","","","","","","","","","","","","","","","","","","","","","",""
"1007","","image-button-response","121","650401","0.0-119.0","ATHDQYUL5JEH4","img_art/11.jpg","4","","","","","","","","","","","","","","","","","","","","","","","","",""
"875","","image-button-response","122","651279","0.0-120.0-0.0","ATHDQYUL5JEH4","img_art/11.jpg","3","","","","","","","","","","","","","","","","","","","","","","","","",""
"1134","","image-button-response","123","652417","0.0-121.0-0.0","ATHDQYUL5JEH4","img_art/11.jpg","0","","","","","","","","","","","","","","","","","","","","","","","","",""
"null","","html-keyboard-response","124","652919","0.0-122.0","ATHDQYUL5JEH4","<p style=""font-size: 48px;"">+</p>","","","","","null","allTrialResponses","500","1","11","img_art/11.jpg","31","Modern Art","Tyler,David,Jeremy,Christopher,Brett,Cody","Rainy day at an urban sea port. Portugal?,30,320,20","I like how this piece can be interpreted in different ways, such as a village on hilly terrain.,10,340,20","gave me a sense of gloom,-21,60,20","i like the gray tones with black lines and bits of color,23,160,20","This looks like a busy highway system along a suburban background,40,360,20","Pretty, interesting, feels like a city, feels like home,50,180,20","Brett","This looks like a busy highway system along a suburban background,40,360,20","Christopher","i like the gray tones with black lines and bits of color,23,160,20","Tyler","Rainy day at an urban sea port. Portugal?,30,320,20","2"
"11103","","survey-text","125","664032","0.0-123.0-0.0","ATHDQYUL5JEH4","","","","{""Q0"":""a little dizzy""}","","","","","","","","","","","","","","","","","","","","","","",""
"3672","","image-slider-response","126","667710","0.0-124.0","ATHDQYUL5JEH4","","","","","-35","","","","","","","","","","","","","","","","","","","","","",""
"2431","","image-button-response","127","672726","0.0-125.0","ATHDQYUL5JEH4","img_art/15.jpg","1","","","","","","","","","","","","","","","","","","","","","","","","",""
"1402","","image-button-response","128","674133","0.0-126.0","ATHDQYUL5JEH4","img_art/15.jpg","5","","","","","","","","","","","","","","","","","","","","","","","","",""
"1448","","image-button-response","129","675585","0.0-127.0-0.0","ATHDQYUL5JEH4","img_art/15.jpg","1","","","","","","","","","","","","","","","","","","","","","","","","",""
"8646","","image-button-response","130","684235","0.0-128.0-0.0","ATHDQYUL5JEH4","img_art/15.jpg","0","","","","","","","","","","","","","","","","","","","","","","","","",""
"null","","html-keyboard-response","131","685240","0.0-129.0","ATHDQYUL5JEH4","<p style=""font-size: 48px;"">+</p>","","","","","null","allTrialResponses","1000","1","12","img_art/15.jpg","-35","a little dizzy","Tyler,Luis,Connor,Christopher,Brett,Dakota","I am starting to feel description fatigue. This would be pleasant enough in a doctor's office waiting room.,15,320,20","Extreme darkness and sadness,-30,400,20","Neat to explore meaning, blue is interesting,11,240,20","this is really pretty! i like the pops of blue in all the black,26,160,20","I don't know how I feel about this,31,360,20","abrasive, rough, uneven,-31,280,20","Dakota","abrasive, rough, uneven,-31,280,20","Luis","Extreme darkness and sadness,-30,400,20","Tyler","I am starting to feel description fatigue. This would be pleasant enough in a doctor's office waiting room.,15,320,20","2"
"8943","","survey-text","132","694190","0.0-130.0-0.0","ATHDQYUL5JEH4","","","","{""Q0"":""Monkey""}","","","","","","","","","","","","","","","","","","","","","","",""
"3719","","image-slider-response","133","697920","0.0-131.0","ATHDQYUL5JEH4","","","","","-11","","","","","","","","","","","","","","","","","","","","","",""
"3337","","image-button-response","134","702927","0.0-132.0","ATHDQYUL5JEH4","img_art/28.jpg","2","","","","","","","","","","","","","","","","","","","","","","","","",""
"975","","image-button-response","135","703905","0.0-133.0","ATHDQYUL5JEH4","img_art/28.jpg","2","","","","","","","","","","","","","","","","","","","","","","","","",""
"603","","image-button-response","136","704511","0.0-134.0-0.0","ATHDQYUL5JEH4","img_art/28.jpg","1","","","","","","","","","","","","","","","","","","","","","","","","",""
"1048","","image-button-response","137","705564","0.0-135.0-0.0","ATHDQYUL5JEH4","img_art/28.jpg","3","","","","","","","","","","","","","","","","","","","","","","","","",""
"null","","html-keyboard-response","138","707070","0.0-136.0","ATHDQYUL5JEH4","<p style=""font-size: 48px;"">+</p>","","","","","null","allTrialResponses","1500","1","13","img_art/28.jpg","-11","Monkey","Tyler,Luis,Charles,Benjamin,Anthony,Dakota","It's okay. There is harmony and balance.,11,320,20","Self-hate and abuse at home, unsafe and torturing,-30,400,20","The thing on the right is kind of weird/fetus-y,-12,100,20","Colors are too dull.,-30,260,20","This picture doesn't really stand out to me,1,200,20","musical, animated and happy with somber undertones,7,280,20","Charles","The thing on the right is kind of weird/fetus-y,-12,100,20","Luis","Self-hate and abuse at home, unsafe and torturing,-30,400,20","Benjamin","Colors are too dull.,-30,260,20","2"
"12789","","survey-text","139","719865","0.0-137.0-0.0","ATHDQYUL5JEH4","","","","{""Q0"":""so claming""}","","","","","","","","","","","","","","","","","","","","","","",""
"4957","","image-slider-response","140","724825","0.0-138.0","ATHDQYUL5JEH4","","","","","11","","","","","","","","","","","","","","","","","","","","","",""
"3561","","image-button-response","141","729833","0.0-139.0","ATHDQYUL5JEH4","img_art/13.jpg","0","","","","","","","","","","","","","","","","","","","","","","","","",""
"1207","","image-button-response","142","731044","0.0-140.0","ATHDQYUL5JEH4","img_art/13.jpg","3","","","","","","","","","","","","","","","","","","","","","","","","",""
"663","","image-button-response","143","731720","0.0-141.0-0.0","ATHDQYUL5JEH4","img_art/13.jpg","4","","","","","","","","","","","","","","","","","","","","","","","","",""
"720","","image-button-response","144","732447","0.0-142.0-0.0","ATHDQYUL5JEH4","img_art/13.jpg","0","","","","","","","","","","","","","","","","","","","","","","","","",""
"null","","html-keyboard-response","145","732958","0.0-143.0","ATHDQYUL5JEH4","<p style=""font-size: 48px;"">+</p>","","","","","null","allTrialResponses","500","1","14","img_art/13.jpg","11","so claming","Devon,Luis,Charles,Benjamin,Caleb,Paul","I like this picture. The choice of colors are good,31,400,20","I love the edgy nature,50,400,20","It's like a pattern on a bus seat,10,100,20","Reminds me of rain running down a window.,35,260,20","Lots of depth and character.,30,40,20","It's like any other splatter paint art piece, nothing special,1,300,20","Benjamin","Reminds me of rain running down a window.,35,260,20","Caleb","Lots of depth and character.,30,40,20","Devon","I like this picture. The choice of colors are good,31,400,20","2"
"11463","","survey-text","146","744431","0.0-144.0-0.0","ATHDQYUL5JEH4","","","","{""Q0"":""Tree in the middle""}","","","","","","","","","","","","","","","","","","","","","","",""
"3424","","image-slider-response","147","747859","0.0-145.0","ATHDQYUL5JEH4","","","","","23","","","","","","","","","","","","","","","","","","","","","",""
"2407","","image-button-response","148","752863","0.0-146.0","ATHDQYUL5JEH4","img_art/17.jpg","0","","","","","","","","","","","","","","","","","","","","","","","","",""
"1028","","image-button-response","149","753896","0.0-147.0","ATHDQYUL5JEH4","img_art/17.jpg","5","","","","","","","","","","","","","","","","","","","","","","","","",""
"740","","image-button-response","150","754640","0.0-148.0-0.0","ATHDQYUL5JEH4","img_art/17.jpg","2","","","","","","","","","","","","","","","","","","","","","","","","",""
"856","","image-button-response","151","755501","0.0-149.0-0.0","ATHDQYUL5JEH4","img_art/17.jpg","0","","","","","","","","","","","","","","","","","","","","","","","","",""
"null","","html-keyboard-response","152","757006","0.0-150.0","ATHDQYUL5JEH4","<p style=""font-size: 48px;"">+</p>","","","","","null","allTrialResponses","1500","1","15","img_art/17.jpg","23","Tree in the middle","Devon,Jack,Miguel,Benjamin,Caleb,Jeffrey","i feel some sadness in this picture,25,400,20","stunning. makes me feel happy, hopeful, serene, and a little wistful.,50,320,20","Looks awesome .,33,160,20","Don't really like pastels.,-10,260,20","Not even abstract to me, very clear meaning.,44,40,20","Makes me warm and cozy just by looking at it,29,40,20","Jeffrey","Makes me warm and cozy just by looking at it,29,40,20","Miguel","Looks awesome .,33,160,20","Devon","i feel some sadness in this picture,25,400,20","2"
"5057","","survey-text","153","762089","0.0-151.0-0.0","ATHDQYUL5JEH4","","","","{""Q0"":""course""}","","","","","","","","","","","","","","","","","","","","","","",""
"17569","","survey-text","154","779660","0.0-152.0-0.0","ATHDQYUL5JEH4","","","","{""Q0"":""drawn by a baby""}","","","","","","","","","","","","","","","","","","","","","","",""
"3451","","image-slider-response","155","783115","0.0-153.0","ATHDQYUL5JEH4","","","","","-35","","","","","","","","","","","","","","","","","","","","","",""
"2001","","image-button-response","156","788131","0.0-154.0","ATHDQYUL5JEH4","img_art/19.jpg","1","","","","","","","","","","","","","","","","","","","","","","","","",""
"790","","image-button-response","157","788925","0.0-155.0","ATHDQYUL5JEH4","img_art/19.jpg","2","","","","","","","","","","","","","","","","","","","","","","","","",""
"1096","","image-button-response","158","790026","0.0-156.0-0.0","ATHDQYUL5JEH4","img_art/19.jpg","1","","","","","","","","","","","","","","","","","","","","","","","","",""
"2381","","image-button-response","159","792413","0.0-157.0-0.0","ATHDQYUL5JEH4","img_art/19.jpg","3","","","","","","","","","","","","","","","","","","","","","","","","",""
"null","","html-keyboard-response","160","792927","0.0-158.0","ATHDQYUL5JEH4","<p style=""font-size: 48px;"">+</p>","","","","","null","allTrialResponses","500","1","16","img_art/19.jpg","-35","drawn by a baby","Devon,Joshua,Miguel,Stephen,Ryan,Jeffrey","this looks like a busy city lifestyle,24,400,20","Just don't like this one.,-9,240,20","Messy and kid like.,-36,160,20","Solid use of colors but wished it looked more realistic.,12,140,20","Its just a nice painting, nothing too special but nothing negative,25,380,20","very lively and colourful,21,40,20","Miguel","Messy and kid like.,-36,160,20","Joshua","Just don't like this one.,-9,240,20","Stephen","Solid use of colors but wished it looked more realistic.,12,140,20","2"
"9865","","survey-text","161","802800","0.0-159.0-0.0","ATHDQYUL5JEH4","","","","{""Q0"":""Excellent Art""}","","","","","","","","","","","","","","","","","","","","","","",""
"3618","","image-slider-response","162","806424","0.0-160.0","ATHDQYUL5JEH4","","","","","25","","","","","","","","","","","","","","","","","","","","","",""
"1313","","image-button-response","163","811428","0.0-161.0","ATHDQYUL5JEH4","img_art/8.jpg","0","","","","","","","","","","","","","","","","","","","","","","","","",""
"529","","image-button-response","164","811959","0.0-162.0","ATHDQYUL5JEH4","img_art/8.jpg","2","","","","","","","","","","","","","","","","","","","","","","","","",""
"1527","","image-button-response","165","813489","0.0-163.0-0.0","ATHDQYUL5JEH4","img_art/8.jpg","4","","","","","","","","","","","","","","","","","","","","","","","","",""
"646","","image-button-response","166","814139","0.0-164.0-0.0","ATHDQYUL5JEH4","img_art/8.jpg","3","","","","","","","","","","","","","","","","","","","","","","","","",""
"null","","html-keyboard-response","167","815641","0.0-165.0","ATHDQYUL5JEH4","<p style=""font-size: 48px;"">+</p>","","","","","null","allTrialResponses","1500","1","17","img_art/8.jpg","25","Excellent Art","Nathaniel,Joshua,Miguel,Stephen,Colton,Bradley","Not a fan of abstract looking pieces with too many focal points. The tunnel and face, for example,-31,220,20","I don't understand it. Makes no sense to me.,5,240,20","Well painted. Not my style.,27,160,20","Has nice depth to it.,12,140,20","looks like an aerial view, very pretty,32,220,20","Interesting but it has a bit of a dark feel to it.,6,300,20","Miguel","Well painted. Not my style.,27,160,20","Colton","looks like an aerial view, very pretty,32,220,20","Stephen","Has nice depth to it.,12,140,20","2"
"7570","","survey-text","168","823218","0.0-166.0-0.0","ATHDQYUL5JEH4","","","","{""Q0"":""Man on a horse""}","","","","","","","","","","","","","","","","","","","","","","",""
"3373","","image-slider-response","169","826594","0.0-167.0","ATHDQYUL5JEH4","","","","","23","","","","","","","","","","","","","","","","","","","","","",""
"2237","","image-button-response","170","831600","0.0-168.0","ATHDQYUL5JEH4","img_art/18.jpg","1","","","","","","","","","","","","","","","","","","","","","","","","",""
"787","","image-button-response","171","832390","0.0-169.0","ATHDQYUL5JEH4","img_art/18.jpg","4","","","","","","","","","","","","","","","","","","","","","","","","",""
"1020","","image-button-response","172","833413","0.0-170.0-0.0","ATHDQYUL5JEH4","img_art/18.jpg","1","","","","","","","","","","","","","","","","","","","","","","","","",""
"692","","image-button-response","173","834111","0.0-171.0-0.0","ATHDQYUL5JEH4","img_art/18.jpg","2","","","","","","","","","","","","","","","","","","","","","","","","",""
"null","","html-keyboard-response","174","834615","0.0-172.0","ATHDQYUL5JEH4","<p style=""font-size: 48px;"">+</p>","","","","","null","allTrialResponses","500","1","18","img_art/18.jpg","23","Man on a horse","Dalton,Alexander,Miguel,Stephen,Colton,James","i like the colors in the picture and can make out my own images,42,300,20","Ghostly sea adventure.,20,120,20","This looks amazing.,40,160,20","Too abstract to me,-30,140,20","reminds me of greek mythology,22,220,20","Very eerie and it's spooky,11,380,20","Colton","reminds me of greek mythology,22,220,20","Alexander","Ghostly sea adventure.,20,120,20","Miguel","This looks amazing.,40,160,20","2"
"11972","","survey-text","175","846597","0.0-173.0-0.0","ATHDQYUL5JEH4","","","","{""Q0"":""Messed up monkey""}","","","","","","","","","","","","","","","","","","","","","","",""
"2986","","image-slider-response","176","849586","0.0-174.0","ATHDQYUL5JEH4","","","","","-23","","","","","","","","","","","","","","","","","","","","","",""
"1423","","image-button-response","177","854588","0.0-175.0","ATHDQYUL5JEH4","img_art/2.jpg","1","","","","","","","","","","","","","","","","","","","","","","","","",""
"976","","image-button-response","178","855569","0.0-176.0","ATHDQYUL5JEH4","img_art/2.jpg","2","","","","","","","","","","","","","","","","","","","","","","","","",""
"1359","","image-button-response","179","856932","0.0-177.0-0.0","ATHDQYUL5JEH4","img_art/2.jpg","4","","","","","","","","","","","","","","","","","","","","","","","","",""
"1012","","image-button-response","180","857946","0.0-178.0-0.0","ATHDQYUL5JEH4","img_art/2.jpg","1","","","","","","","","","","","","","","","","","","","","","","","","",""
"null","","html-keyboard-response","181","858448","0.0-179.0","ATHDQYUL5JEH4","<p style=""font-size: 48px;"">+</p>","","","","","null","allTrialResponses","500","1","19","img_art/2.jpg","-23","Messed up monkey","Mason,Alexander,Miguel,Lucas,Colton,Kevin","retro, amateurish, not a fan of the colors together.,-10,100,20","Old, dull, messy.,-10,120,20","7 year old painted?,-35,160,20","Colorful, curious.,20,380,20","too blocky and don't like color combination,-32,220,20","That looks look a cartoon character of some kind.,11,320,20","Miguel","7 year old painted?,-35,160,20","Colton","too blocky and don't like color combination,-32,220,20","Alexander","Old, dull, messy.,-10,120,20","2"
"12660","","survey-text","182","871116","0.0-180.0-0.0","ATHDQYUL5JEH4","","","","{""Q0"":""House or a tree""}","","","","","","","","","","","","","","","","","","","","","","",""
"3487","","image-slider-response","183","874606","0.0-181.0","ATHDQYUL5JEH4","","","","","-14","","","","","","","","","","","","","","","","","","","","","",""
"1573","","image-button-response","184","879609","0.0-182.0","ATHDQYUL5JEH4","img_art/26.jpg","1","","","","","","","","","","","","","","","","","","","","","","","","",""
"1014","","image-button-response","185","880627","0.0-183.0","ATHDQYUL5JEH4","img_art/26.jpg","1","","","","","","","","","","","","","","","","","","","","","","","","",""
"717","","image-button-response","186","881347","0.0-184.0-0.0","ATHDQYUL5JEH4","img_art/26.jpg","2","","","","","","","","","","","","","","","","","","","","","","","","",""
"775","","image-button-response","187","882127","0.0-185.0-0.0","ATHDQYUL5JEH4","img_art/26.jpg","5","","","","","","","","","","","","","","","","","","","","","","","","",""
"null","","html-keyboard-response","188","883130","0.0-186.0","ATHDQYUL5JEH4","<p style=""font-size: 48px;"">+</p>","","","","","null","allTrialResponses","1000","1","20","img_art/26.jpg","-14","House or a tree","Gabriel,Alexander,Miguel,Zachary,Colton,Ethan","this is nice!! i like the muted colors,34,160,20","Confusing park picture.,8,120,20","Murky, messy, kid like.,-45,160,20","Pretty trees and bushes around fancy brown stones. I like the soft nature.,20,400,20","very impressionistic,11,220,20","I can tell it's some sort of outdoor scene. It looks very amateurish.,-9,120,20","Alexander","Confusing park picture.,8,120,20","Miguel","Murky, messy, kid like.,-45,160,20","Ethan","I can tell it's some sort of outdoor scene. It looks very amateurish.,-9,120,20","2"
"4982","","survey-text","189","888127","0.0-187.0-0.0","ATHDQYUL5JEH4","","","","{""Q0"":""we""}","","","","","","","","","","","","","","","","","","","","","","",""
"7141","","survey-text","190","895273","0.0-188.0-0.0","ATHDQYUL5JEH4","","","","{""Q0"":""stone age""}","","","","","","","","","","","","","","","","","","","","","","",""
"3488","","image-slider-response","191","898766","0.0-189.0","ATHDQYUL5JEH4","","","","","14","","","","","","","","","","","","","","","","","","","","","",""
"4207","","image-button-response","192","903769","0.0-190.0","ATHDQYUL5JEH4","img_art/20.jpg","3","","","","","","","","","","","","","","","","","","","","","","","","",""
"1090","","image-button-response","193","904862","0.0-191.0","ATHDQYUL5JEH4","img_art/20.jpg","5","","","","","","","","","","","","","","","","","","","","","","","","",""
"971","","image-button-response","194","905837","0.0-192.0-0.0","ATHDQYUL5JEH4","img_art/20.jpg","2","","","","","","","","","","","","","","","","","","","","","","","","",""
"687","","image-button-response","195","906527","0.0-193.0-0.0","ATHDQYUL5JEH4","img_art/20.jpg","0","","","","","","","","","","","","","","","","","","","","","","","","",""
"null","","html-keyboard-response","196","908028","0.0-194.0","ATHDQYUL5JEH4","<p style=""font-size: 48px;"">+</p>","","","","","null","allTrialResponses","1500","1","21","img_art/20.jpg","14","stone age","Marcus,Alexander,Miguel,Brendan,Scott,Ethan","I like the blues, and the sense of foreboding it makes me feel.,20,60,20","The beach and industry.,12,120,20","It's ok. Very abstract.,18,160,20","i can see a car crash,13,340,20","feels distorted and uncomfortable,-41,20,20","I can tell this artist has experience. I just don't care for the color combo.,7,120,20","Ethan","I can tell this artist has experience. I just don't care for the color combo.,7,120,20","Miguel","It's ok. Very abstract.,18,160,20","Marcus","I like the blues, and the sense of foreboding it makes me feel.,20,60,20","2"
"18683","","survey-text","197","926720","0.0-195.0-0.0","ATHDQYUL5JEH4","","","","{""Q0"":""some kind of Art but not sure what it is""}","","","","","","","","","","","","","","","","","","","","","","",""
"3427","","image-slider-response","198","930150","0.0-196.0","ATHDQYUL5JEH4","","","","","-22","","","","","","","","","","","","","","","","","","","","","",""
"1276","","image-button-response","199","935156","0.0-197.0","ATHDQYUL5JEH4","img_art/22.jpg","4","","","","","","","","","","","","","","","","","","","","","","","","",""
"914","","image-button-response","200","936074","0.0-198.0","ATHDQYUL5JEH4","img_art/22.jpg","4","","","","","","","","","","","","","","","","","","","","","","","","",""
"1580","","image-button-response","201","937658","0.0-199.0-0.0","ATHDQYUL5JEH4","img_art/22.jpg","0","","","","","","","","","","","","","","","","","","","","","","","","",""
"726","","image-button-response","202","938386","0.0-200.0-0.0","ATHDQYUL5JEH4","img_art/22.jpg","3","","","","","","","","","","","","","","","","","","","","","","","","",""
"null","","html-keyboard-response","203","938888","0.0-201.0","ATHDQYUL5JEH4","<p style=""font-size: 48px;"">+</p>","","","","","null","allTrialResponses","500","1","22","img_art/22.jpg","-22","some kind of Art but not sure what it is","Marcus,Adrian,Miguel,Grant,Devin,Ethan","Like the colors. I enjoy looking at this one.,15,60,20","Too much contrasting colors makes me feel anxious. I don't like it.,-20,60,20","Same az the last one?,-49,160,20","The way the colors seem to be reflected is a bit mesmerizing.,10,200,20","I really like the colors here,3,380,20","I do not like the color combo. This piece is too much the same throughout.,-1,120,20","Devin","I really like the colors here,3,380,20","Marcus","Like the colors. I enjoy looking at this one.,15,60,20","Grant","The way the colors seem to be reflected is a bit mesmerizing.,10,200,20","2"
"9417","","survey-text","204","948314","0.0-202.0-0.0","ATHDQYUL5JEH4","","","","{""Q0"":""scribble in the wall""}","","","","","","","","","","","","","","","","","","","","","","",""
"3248","","image-slider-response","205","951570","0.0-203.0","ATHDQYUL5JEH4","","","","","-23","","","","","","","","","","","","","","","","","","","","","",""
"1713","","image-button-response","206","956583","0.0-204.0","ATHDQYUL5JEH4","img_art/3.jpg","4","","","","","","","","","","","","","","","","","","","","","","","","",""
"1077","","image-button-response","207","957666","0.0-205.0","ATHDQYUL5JEH4","img_art/3.jpg","4","","","","","","","","","","","","","","","","","","","","","","","","",""
"727","","image-button-response","208","958397","0.0-206.0-0.0","ATHDQYUL5JEH4","img_art/3.jpg","5","","","","","","","","","","","","","","","","","","","","","","","","",""
"875","","image-button-response","209","959277","0.0-207.0-0.0","ATHDQYUL5JEH4","img_art/3.jpg","3","","","","","","","","","","","","","","","","","","","","","","","","",""
"null","","html-keyboard-response","210","960279","0.0-208.0","ATHDQYUL5JEH4","<p style=""font-size: 48px;"">+</p>","","","","","null","allTrialResponses","1000","1","23","img_art/3.jpg","-23","scribble in the wall","Marcus,Joseph,Garrett,Grant,Devin,Evan","Like the colors and energy of this work.,10,60,20","Really have no idea what I'm looking at.,1,220,20","I can't tell what this image is supposed to be it looks extremely ugly and color variety is boring.,-50,180,20","It looks like the artist was trying too hard to make it chaotic and emotional.,-25,200,20","Scribbly a bit too much,-30,380,20","It feels like a half assed and failed imitation of Japanese signatures on old paintings,-22,140,20","Devin","Scribbly a bit too much,-30,380,20","Evan","It feels like a half assed and failed imitation of Japanese signatures on old paintings,-22,140,20","Grant","It looks like the artist was trying too hard to make it chaotic and emotional.,-25,200,20","2"
"9036","","survey-text","211","969321","0.0-209.0-0.0","ATHDQYUL5JEH4","","","","{""Q0"":""what is this thing""}","","","","","","","","","","","","","","","","","","","","","","",""
"3417","","image-slider-response","212","972741","0.0-210.0","ATHDQYUL5JEH4","","","","","-19","","","","","","","","","","","","","","","","","","","","","",""
"4117","","image-button-response","213","977744","0.0-211.0","ATHDQYUL5JEH4","img_art/5.jpg","1","","","","","","","","","","","","","","","","","","","","","","","","",""
"1068","","image-button-response","214","978815","0.0-212.0","ATHDQYUL5JEH4","img_art/5.jpg","0","","","","","","","","","","","","","","","","","","","","","","","","",""
"762","","image-button-response","215","979581","0.0-213.0-0.0","ATHDQYUL5JEH4","img_art/5.jpg","1","","","","","","","","","","","","","","","","","","","","","","","","",""
"1141","","image-button-response","216","980727","0.0-214.0-0.0","ATHDQYUL5JEH4","img_art/5.jpg","5","","","","","","","","","","","","","","","","","","","","","","","","",""
"null","","html-keyboard-response","217","981740","0.0-215.0","ATHDQYUL5JEH4","<p style=""font-size: 48px;"">+</p>","","","","","null","allTrialResponses","1000","1","24","img_art/5.jpg","-19","what is this thing","Dylan,Patrick,John,Grant,Devin,Evan","This looks like a twelve year old did it,-40,40,20","It looks random,-10,280,20","It has a sense of vague familiarity that i like.Like a stick starting a fire at a campsite.,30,120,20","This elicits no reaction in me.,0,200,20","A bit too messy in my eyes,-4,380,20","I am confused as to what I am seeing is it a handbag, duck foot, bell?,-18,140,20","Dylan","This looks like a twelve year old did it,-40,40,20","Patrick","It looks random,-10,280,20","Evan","I am confused as to what I am seeing is it a handbag, duck foot, bell?,-18,140,20","2"
"10483","","survey-text","218","992231","0.0-216.0-0.0","ATHDQYUL5JEH4","","","","{""Q0"":""block of images""}","","","","","","","","","","","","","","","","","","","","","","",""
"3079","","image-slider-response","219","995313","0.0-217.0","ATHDQYUL5JEH4","","","","","11","","","","","","","","","","","","","","","","","","","","","",""
"3914","","image-button-response","220","1000318","0.0-218.0","ATHDQYUL5JEH4","img_art/12.jpg","1","","","","","","","","","","","","","","","","","","","","","","","","",""
"486","","image-button-response","221","1000806","0.0-219.0","ATHDQYUL5JEH4","img_art/12.jpg","1","","","","","","","","","","","","","","","","","","","","","","","","",""
"1117","","image-button-response","222","1001928","0.0-220.0-0.0","ATHDQYUL5JEH4","img_art/12.jpg","4","","","","","","","","","","","","","","","","","","","","","","","","",""
"514","","image-button-response","223","1002446","0.0-221.0-0.0","ATHDQYUL5JEH4","img_art/12.jpg","0","","","","","","","","","","","","","","","","","","","","","","","","",""
"null","","html-keyboard-response","224","1003458","0.0-222.0","ATHDQYUL5JEH4","<p style=""font-size: 48px;"">+</p>","","","","","null","allTrialResponses","1000","1","25","img_art/12.jpg","11","block of images","Dylan,Patrick,Spencer,Seth,Juan,Evan","I like the pattern of this picture, but the colors could be nicer,11,40,20","I don't like the blocking,-20,280,20","Looks like a puzzle I want to put together, but not hang in my den,2,120,20","This is beautiful. It looks like 1,000 different sunrises and sunsets.,44,60,20","This is too abstract and the colors are too worn out.,-23,260,20","It reminds me of the documentary Paris is Burning, though I'm not sure why,11,140,20","Patrick","I don't like the blocking,-20,280,20","Juan","This is too abstract and the colors are too worn out.,-23,260,20","Dylan","I like the pattern of this picture, but the colors could be nicer,11,40,20","2"
"4485","","survey-text","225","1007960","0.0-223.0-0.0","ATHDQYUL5JEH4","","","","{""Q0"":""table""}","","","","","","","","","","","","","","","","","","","","","","",""
"7547","","survey-text","226","1015511","0.0-224.0-0.0","ATHDQYUL5JEH4","","","","{""Q0"":""cloud of mist""}","","","","","","","","","","","","","","","","","","","","","","",""
"3693","","image-slider-response","227","1019207","0.0-225.0","ATHDQYUL5JEH4","","","","","12","","","","","","","","","","","","","","","","","","","","","",""
"2686","","image-button-response","228","1024211","0.0-226.0","ATHDQYUL5JEH4","img_art/27.jpg","2","","","","","","","","","","","","","","","","","","","","","","","","",""
"827","","image-button-response","229","1025041","0.0-227.0","ATHDQYUL5JEH4","img_art/27.jpg","4","","","","","","","","","","","","","","","","","","","","","","","","",""
"458","","image-button-response","230","1025503","0.0-228.0-0.0","ATHDQYUL5JEH4","img_art/27.jpg","5","","","","","","","","","","","","","","","","","","","","","","","","",""
"1155","","image-button-response","231","1026662","0.0-229.0-0.0","ATHDQYUL5JEH4","img_art/27.jpg","3","","","","","","","","","","","","","","","","","","","","","","","","",""
"null","","html-keyboard-response","232","1028177","0.0-230.0","ATHDQYUL5JEH4","<p style=""font-size: 48px;"">+</p>","","","","","null","allTrialResponses","1500","1","26","img_art/27.jpg","12","cloud of mist","Dylan,Patrick,Kenneth,Trevor,Juan,Richard","This is ugly and looks like a child did this,-36,40,20","Not cohesive design,-31,280,20","The green stick drawings or whatever they are ruin it for me.,-23,300,20","I like the orange but it's a little blah,1,280,20","Colors make me think of fall, but I don't like how the picture was done or the weird lines across the background,6,260,20","like the patterns and colors all but the orange blob on the right,32,340,20","Juan","Colors make me think of fall, but I don't like how the picture was done or the weird lines across the background,6,260,20","Richard","like the patterns and colors all but the orange blob on the right,32,340,20","Trevor","I like the orange but it's a little blah,1,280,20","2"
"10123","","survey-text","233","1038310","0.0-231.0-0.0","ATHDQYUL5JEH4","","","","{""Q0"":""monkey or donkey""}","","","","","","","","","","","","","","","","","","","","","","",""
"4301","","image-slider-response","234","1042616","0.0-232.0","ATHDQYUL5JEH4","","","","","-27","","","","","","","","","","","","","","","","","","","","","",""
"4122","","image-button-response","235","1047626","0.0-233.0","ATHDQYUL5JEH4","img_art/4.jpg","3","","","","","","","","","","","","","","","","","","","","","","","","",""
"1226","","image-button-response","236","1048857","0.0-234.0","ATHDQYUL5JEH4","img_art/4.jpg","0","","","","","","","","","","","","","","","","","","","","","","","","",""
"1193","","image-button-response","237","1050052","0.0-235.0-0.0","ATHDQYUL5JEH4","img_art/4.jpg","3","","","","","","","","","","","","","","","","","","","","","","","","",""
"772","","image-button-response","238","1050828","0.0-236.0-0.0","ATHDQYUL5JEH4","img_art/4.jpg","4","","","","","","","","","","","","","","","","","","","","","","","","",""
"null","","html-keyboard-response","239","1051831","0.0-237.0","ATHDQYUL5JEH4","<p style=""font-size: 48px;"">+</p>","","","","","null","allTrialResponses","1000","1","27","img_art/4.jpg","-27","monkey or donkey","Daniel,Kyle,Cameron,Trevor,Juan,Richard","Better version of a 7 year old who got lucky,-23,320,20","It's quite meh to me,0,340,20","Looks like the roomba got into dog poop,-30,60,20","not enough color and too yellow for me. Not my favorite colors,-10,280,20","Again, this is too abstract and I really don't like the colors.,-21,260,20","too childish, not really art in my world,-50,340,20","Daniel","Better version of a 7 year old who got lucky,-23,320,20","Trevor","not enough color and too yellow for me. Not my favorite colors,-10,280,20","Juan","Again, this is too abstract and I really don't like the colors.,-21,260,20","2"
"11016","","survey-text","240","1062862","0.0-238.0-0.0","ATHDQYUL5JEH4","","","","{""Q0"":""frog in a pond""}","","","","","","","","","","","","","","","","","","","","","","",""
"3615","","image-slider-response","241","1066482","0.0-239.0","ATHDQYUL5JEH4","","","","","9","","","","","","","","","","","","","","","","","","","","","",""
"3661","","image-button-response","242","1071489","0.0-240.0","ATHDQYUL5JEH4","img_art/9.jpg","2","","","","","","","","","","","","","","","","","","","","","","","","",""
"1046","","image-button-response","243","1072539","0.0-241.0","ATHDQYUL5JEH4","img_art/9.jpg","3","","","","","","","","","","","","","","","","","","","","","","","","",""
"660","","image-button-response","244","1073203","0.0-242.0-0.0","ATHDQYUL5JEH4","img_art/9.jpg","2","","","","","","","","","","","","","","","","","","","","","","","","",""
"766","","image-button-response","245","1073972","0.0-243.0-0.0","ATHDQYUL5JEH4","img_art/9.jpg","4","","","","","","","","","","","","","","","","","","","","","","","","",""
"null","","html-keyboard-response","246","1074489","0.0-244.0","ATHDQYUL5JEH4","<p style=""font-size: 48px;"">+</p>","","","","","null","allTrialResponses","500","1","28","img_art/9.jpg","9","frog in a pond","Daniel,Adam,Ian,Trevor,Juan,Michael","A troubled painter was influenced by anger and mad at the woman in the middle, color not bad,-32,320,20","Very eclectic and messy. Not my preference, but may work for some.,-20,40,20","It looks like someone gave a kid a coloring book page but the colors are soothing and look put together and elegant,27,260,20","nice colors but it looks like it's from the 80s,10,280,20","It's too abstract for my taste. I wish there were more definition.,-9,260,20","Looks like a young child drew it.,-45,140,20","Trevor","nice colors but it looks like it's from the 80s,10,280,20","Ian","It looks like someone gave a kid a coloring book page but the colors are soothing and look put together and elegant,27,260,20","Juan","It's too abstract for my taste. I wish there were more definition.,-9,260,20","2"
"9721","","survey-text","247","1084222","0.0-245.0-0.0","ATHDQYUL5JEH4","","","","{""Q0"":""crow in a field""}","","","","","","","","","","","","","","","","","","","","","","",""
"3092","","image-slider-response","248","1087318","0.0-246.0","ATHDQYUL5JEH4","","","","","-12","","","","","","","","","","","","","","","","","","","","","",""
"1598","","image-button-response","249","1092332","0.0-247.0","ATHDQYUL5JEH4","img_art/6.jpg","1","","","","","","","","","","","","","","","","","","","","","","","","",""
"358","","image-button-response","250","1092693","0.0-248.0","ATHDQYUL5JEH4","img_art/6.jpg","4","","","","","","","","","","","","","","","","","","","","","","","","",""
"738","","image-button-response","251","1093436","0.0-249.0-0.0","ATHDQYUL5JEH4","img_art/6.jpg","5","","","","","","","","","","","","","","","","","","","","","","","","",""
"628","","image-button-response","252","1094070","0.0-250.0-0.0","ATHDQYUL5JEH4","img_art/6.jpg","2","","","","","","","","","","","","","","","","","","","","","","","","",""
"null","","html-keyboard-response","253","1095584","0.0-251.0","ATHDQYUL5JEH4","<p style=""font-size: 48px;"">+</p>","","","","","null","allTrialResponses","1500","1","29","img_art/6.jpg","-12","crow in a field","Hunter,Jake,Ian,Trevor,Juan,Tanner","composition is engaging,28,240,20","It feels sad but it's nice to look at.,4,360,20","It's slightly unnerving to look at, it looks a little creepy/eerie,-16,260,20","i like the simplicity of the tree and the colors,50,280,20","I don't like the colors and the dark shape at the top makes me think of a buzzard.,-28,260,20","loneliness, fragile, forever alone, a girl who's been there for eternity, only think tracking time is the length of her hair,9,180,20","Juan","I don't like the colors and the dark shape at the top makes me think of a buzzard.,-28,260,20","Tanner","loneliness, fragile, forever alone, a girl who's been there for eternity, only think tracking time is the length of her hair,9,180,20","Ian","It's slightly unnerving to look at, it looks a little creepy/eerie,-16,260,20","2"
"19120","","survey-text","254","1114717","0.0-252.0-0.0","ATHDQYUL5JEH4","","","","{""Q0"":""irritable to the eyes""}","","","","","","","","","","","","","","","","","","","","","","",""
"3361","","image-slider-response","255","1118080","0.0-253.0","ATHDQYUL5JEH4","","","","","-21","","","","","","","","","","","","","","","","","","","","","",""
"4109","","image-button-response","256","1123082","0.0-254.0","ATHDQYUL5JEH4","img_art/23.jpg","5","","","","","","","","","","","","","","","","","","","","","","","","",""
"1496","","image-button-response","257","1124580","0.0-255.0","ATHDQYUL5JEH4","img_art/23.jpg","5","","","","","","","","","","","","","","","","","","","","","","","","",""
"743","","image-button-response","258","1125328","0.0-256.0-0.0","ATHDQYUL5JEH4","img_art/23.jpg","2","","","","","","","","","","","","","","","","","","","","","","","","",""
"994","","image-button-response","259","1126325","0.0-257.0-0.0","ATHDQYUL5JEH4","img_art/23.jpg","0","","","","","","","","","","","","","","","","","","","","","","","","",""
"null","","html-keyboard-response","260","1127333","0.0-258.0","ATHDQYUL5JEH4","<p style=""font-size: 48px;"">+</p>","","","","","null","allTrialResponses","1000","1","30","img_art/23.jpg","-21","irritable to the eyes","Vincent,Tristan,Ian,Nicholas,Juan,Tanner","Very happy , busy , free, and full of Hope,28,360,20","So exciting and full of the night.,20,300,20","It's very colorful and different, the white looks like people dancing,26,260,20","The more i look at it the more i like it  the dots of color and very interesting,50,240,20","This is ugly and weird.,-50,260,20","fsiries, happy, spiritual,16,180,20","Tanner","fsiries, happy, spiritual,16,180,20","Ian","It's very colorful and different, the white looks like people dancing,26,260,20","Vincent","Very happy , busy , free, and full of Hope,28,360,20","2"
"3461","","image-button-response_instructions","261","1130804","0.0-259.0","ATHDQYUL5JEH4","","0","instructions","","","","","","","","","","","","","","","","","","","","","","","",""
"4048","","image-button-response","262","1134861","0.0-260.0","ATHDQYUL5JEH4","","0","","","","","","","","","","","","","","","","","","","","","","","","",""
