"rt","url","trial_type","trial_index","time_elapsed","internal_node_id","participant_id","stimulus","button_pressed","Name","responses","response","key_press","variableName","fixationTime","condition","trial","photo","subjectRating","subjectResponse","agentsNames","agent_1_Response","agent_2_Response","agent_3_Response","agent_4_Response","agent_5_Response","agent_6_Response","kept_1_name","kept_1_response","kept_2_name","kept_2_response","kept_3_name","kept_3_response","errorCounter"
"10626","external_page_harvard.html","external-html","0","10726","0.0-0.0","ATQJPX3S1JBVY","","","","","","","","","","","","","","","","","","","","","","","","","","",""
"1457","","image-button-response","1","12185","0.0-1.0","ATQJPX3S1JBVY","","0","","","","","","","","","","","","","","","","","","","","","","","","",""
"1733","","image-button-response","2","13923","0.0-2.0-0.0","ATQJPX3S1JBVY","","1","phone","","","","","","","","","","","","","","","","","","","","","","","",""
"7090","","survey-text","3","21016","0.0-3.0-0.0","ATQJPX3S1JBVY","","","","{""Q0"":""ATQJPX3S1JBVY""}","","","","","","","","","","","","","","","","","","","","","","",""
"2836","","image-button-response_instructions","4","23854","0.0-4.0","ATQJPX3S1JBVY","","0","instructions","","","","","","","","","","","","","","","","","","","","","","","",""
"4602","","image-button-response_instructions","5","28457","0.0-5.0","ATQJPX3S1JBVY","img_art/ins/popularity/ins1.png","0","instructions","","","","","","","","","","","","","","","","","","","","","","","",""
"2530","","image-button-response_instructions","6","30988","0.0-6.0","ATQJPX3S1JBVY","img_art/ins/popularity/ins2.png","0","instructions","","","","","","","","","","","","","","","","","","","","","","","",""
"2937","","image-button-response_instructions","7","33926","0.0-7.0","ATQJPX3S1JBVY","img_art/ins/popularity/ins2Extreme.png","0","instructions","","","","","","","","","","","","","","","","","","","","","","","",""
"1894","","image-button-response_instructions","8","35821","0.0-8.0","ATQJPX3S1JBVY","img_art/ins/popularity/ins3KEEPpop.PNG","0","instructions","","","","","","","","","","","","","","","","","","","","","","","",""
"1284","","image-button-response_instructions","9","37107","0.0-9.0","ATQJPX3S1JBVY","img_art/ins/popularity/ins3ANamepop.PNG","0","instructions","","","","","","","","","","","","","","","","","","","","","","","",""
"1948","","image-button-response_instructions","10","39056","0.0-10.0","ATQJPX3S1JBVY","img_art/ins/popularity/ins3ARatingpop.png","0","instructions","","","","","","","","","","","","","","","","","","","","","","","",""
"800","","image-button-response_instructions","11","39857","0.0-11.0","ATQJPX3S1JBVY","img_art/ins/popularity/ins3ATextpop.png","0","instructions","","","","","","","","","","","","","","","","","","","","","","","",""
"1654","","image-button-response_instructions","12","41513","0.0-12.0","ATQJPX3S1JBVY","img_art/ins/popularity/ins3ALikespop.png","0","instructions","","","","","","","","","","","","","","","","","","","","","","","",""
"6354","","image-button-response_instructions","13","47868","0.0-13.0","ATQJPX3S1JBVY","img_art/ins/popularity/ins3KEEPpop.PNG","0","instructions","","","","","","","","","","","","","","","","","","","","","","","",""
"2224","","image-button-response_instructions","14","50093","0.0-14.0","ATQJPX3S1JBVY","img_art/ins/popularity/ins3_5RED.png","0","instructions","","","","","","","","","","","","","","","","","","","","","","","",""
"728","","image-button-response_instructions","15","50823","0.0-15.0","ATQJPX3S1JBVY","img_art/ins/popularity/ins3KEEPpop.PNG","0","instructions","","","","","","","","","","","","","","","","","","","","","","","",""
"2865","","image-button-response_instructions","16","53689","0.0-16.0","ATQJPX3S1JBVY","img_art/ins/popularity/ins4KEEPpop.PNG","0","instructions","","","","","","","","","","","","","","","","","","","","","","","",""
"2316","","image-button-response_instructions","17","56007","0.0-17.0","ATQJPX3S1JBVY","img_art/ins/popularity/ins5KEEPpop.PNG","0","instructions","","","","","","","","","","","","","","","","","","","","","","","",""
"1393","","image-button-response_instructions","18","57401","0.0-18.0","ATQJPX3S1JBVY","","0","instructions","","","","","","","","","","","","","","","","","","","","","","","",""
"4900","","survey-text","19","62330","0.0-19.0-0.0","ATQJPX3S1JBVY","","","","{""Q0"":""but""}","","","","","","","","","","","","","","","","","","","","","","",""
"28974","","survey-text","20","91304","0.0-20.0-0.0","ATQJPX3S1JBVY","","","","{""Q0"":""I think it's pretty ugly, overall. ""}","","","","","","","","","","","","","","","","","","","","","","",""
"3089.6999999284744","","image-slider-response","21","94397","0.0-21.0","ATQJPX3S1JBVY","","","","","-28","","","","","","","","","","","","","","","","","","","","","",""
"3312","","image-button-response","22","99401","0.0-22.0","ATQJPX3S1JBVY","img_art/ins/1.jpg","2","","","","","","","","","","","","","","","","","","","","","","","","",""
"192","","image-button-response","23","99596","0.0-23.0","ATQJPX3S1JBVY","img_art/ins/1.jpg","2","","","","","","","","","","","","","","","","","","","","","","","","",""
"3254","","image-button-response","24","102853","0.0-24.0-0.0","ATQJPX3S1JBVY","img_art/ins/1.jpg","4","","","","","","","","","","","","","","","","","","","","","","","","",""
"3449","","image-button-response","25","106307","0.0-25.0-0.0","ATQJPX3S1JBVY","img_art/ins/1.jpg","5","","","","","","","","","","","","","","","","","","","","","","","","",""
"null","","html-keyboard-response","26","106810","0.0-26.0","ATQJPX3S1JBVY","<p style=""font-size: 48px;"">+</p>","","","","","null","allTrialResponses","500","1","-2","img_art/ins/1.jpg","-28","I think it's pretty ugly, overall. ","Adam,Alex,Ben,Carl,Daniel,Jack","Seems like doodles,-20,20,20","very creative work.,36,40,20","This color reminds me of poo,-46,60,20","very calming artwork,42,80,20","It looks like a murder scene.,-48,100,20","I like the sophisticated brushwork,40,120,20","Ben","This color reminds me of poo,-46,60,20","Daniel","It looks like a murder scene.,-48,100,20","Jack","I like the sophisticated brushwork,40,120,20","0"
"22360","","survey-text","27","129177","0.0-27.0-0.0","ATQJPX3S1JBVY","","","","{""Q0"":""This reminds me of the art I made in second grade.""}","","","","","","","","","","","","","","","","","","","","","","",""
"2092.5","","image-slider-response","28","131271","0.0-28.0","ATQJPX3S1JBVY","","","","","-29","","","","","","","","","","","","","","","","","","","","","",""
"null","","image-button-response","29","136274","0.0-29.0","ATQJPX3S1JBVY","img_art/ins/2.jpg","null","","","","","","","","","","","","","","","","","","","","","","","","",""
"2685","","image-button-response","30","138964","0.0-30.0","ATQJPX3S1JBVY","img_art/ins/2.jpg","3","","","","","","","","","","","","","","","","","","","","","","","","",""
"1418","","image-button-response","31","140384","0.0-31.0-0.0","ATQJPX3S1JBVY","img_art/ins/2.jpg","0","","","","","","","","","","","","","","","","","","","","","","","","",""
"969","","image-button-response","32","141355","0.0-32.0-0.0","ATQJPX3S1JBVY","img_art/ins/2.jpg","2","","","","","","","","","","","","","","","","","","","","","","","","",""
"null","","html-keyboard-response","33","142858","0.0-33.0","ATQJPX3S1JBVY","<p style=""font-size: 48px;"">+</p>","","","","","null","allTrialResponses","1500","1","-1","img_art/ins/2.jpg","-29","This reminds me of the art I made in second grade.","Kyle,John,Ben,James,Daniel,Jack","Idk, it is just annoying,-32,180,20","love the texture of paint,48,160,20","meaningless painting,-45,60,20","looks too angry,-50,140,20","One of my pet peevs,-48,100,20","I would never be able to compose a sophisticated pallete like this,48,120,20","James","looks too angry,-50,140,20","Kyle","Idk, it is just annoying,-32,180,20","Ben","meaningless painting,-45,60,20","0"
"17318","","survey-text","34","160180","0.0-34.0-0.0","ATQJPX3S1JBVY","","","","{""Q0"":""This is nice! Like angry ice cubes.""}","","","","","","","","","","","","","","","","","","","","","","",""
"3827","","image-slider-response","35","164009","0.0-35.0","ATQJPX3S1JBVY","","","","","30","","","","","","","","","","","","","","","","","","","","","",""
"1310","","image-button-response","36","169012","0.0-36.0","ATQJPX3S1JBVY","img_art/ins/3.jpg","1","","","","","","","","","","","","","","","","","","","","","","","","",""
"230","","image-button-response","37","169248","0.0-37.0","ATQJPX3S1JBVY","img_art/ins/3.jpg","4","","","","","","","","","","","","","","","","","","","","","","","","",""
"1180","","image-button-response","38","170430","0.0-38.0-0.0","ATQJPX3S1JBVY","img_art/ins/3.jpg","4","","","","","","","","","","","","","","","","","","","","","","","","",""
"435","","image-button-response","39","173700","0.0-38.1-0.1","ATQJPX3S1JBVY","img_art/ins/3.jpg","3","","","","","","","","","","","","","","","","","","","","","","","","",""
"2574","","image-button-response","40","176277","0.0-39.0-0.0","ATQJPX3S1JBVY","img_art/ins/3.jpg","2","","","","","","","","","","","","","","","","","","","","","","","","",""
"null","","html-keyboard-response","41","177280","0.0-40.0","ATQJPX3S1JBVY","<p style=""font-size: 48px;"">+</p>","","","","","null","allTrialResponses","1000","1","0","img_art/ins/3.jpg","30","This is nice! Like angry ice cubes.","Kyle,Mike,Ben,James,Ron,Sam","It looks like a playground for bats,-36,180,20","enjoy the different shades of blue,22,200,20","This thing gives me anxiety,-41,60,20","My worst nightmare,-42,140,20","It looks depressing,-26,220,20","I can feel a rainy day from this painting,18,240,20","Ron","It looks depressing,-26,220,20","James","My worst nightmare,-42,140,20","Ben","This thing gives me anxiety,-41,60,20","2"
"3785","","image-button-response_instructions","42","181076","0.0-41.0","ATQJPX3S1JBVY","","0","instructions","","","","","","","","","","","","","","","","","","","","","","","",""
"6452","","survey-likert","43","187531","0.0-42.0-0.0","ATQJPX3S1JBVY","","","","{""Q0"":"""",""Q1"":0,""Q2"":1}","","","","","","","","","","","","","","","","","","","","","","",""
"3545","","survey-text","44","191080","0.0-43.0-0.0","ATQJPX3S1JBVY","","","","{""Q0"":""rock""}","","","","","","","","","","","","","","","","","","","","","","",""
"13666","","survey-text","45","204748","0.0-44.0-0.0","ATQJPX3S1JBVY","","","","{""Q0"":""It's an ugly candle!""}","","","","","","","","","","","","","","","","","","","","","","",""
"2768.899999976158","","image-slider-response","46","207518","0.0-45.0","ATQJPX3S1JBVY","","","","","-27","","","","","","","","","","","","","","","","","","","","","",""
"1393","","image-button-response","47","212544","0.0-46.0","ATQJPX3S1JBVY","img_art/4.jpg","0","","","","","","","","","","","","","","","","","","","","","","","","",""
"171","","image-button-response","48","212718","0.0-47.0","ATQJPX3S1JBVY","img_art/4.jpg","2","","","","","","","","","","","","","","","","","","","","","","","","",""
"4412","","image-button-response","49","217133","0.0-48.0-0.0","ATQJPX3S1JBVY","img_art/4.jpg","5","","","","","","","","","","","","","","","","","","","","","","","","",""
"2275","","image-button-response","50","219411","0.0-49.0-0.0","ATQJPX3S1JBVY","img_art/4.jpg","0","","","","","","","","","","","","","","","","","","","","","","","","",""
"null","","html-keyboard-response","51","220413","0.0-50.0","ATQJPX3S1JBVY","<p style=""font-size: 48px;"">+</p>","","","","","null","allTrialResponses","1000","1","1","img_art/4.jpg","-27","It's an ugly candle!","Brandon,Victor,Alejandro,Charles,Hunter,Anthony","Really don't like this. Kindergarten art, sorry.,-50,320,20","Hate the color, and just do not get the point.,-13,340,20","Looks like finger nails from the Guinness world record book.,-30,80,20","It's ok, theres nothing that draws me away from it I guess,0,100,20","appealing warm palette,6,240,20","Ugly and bland compared to the other pieces.,-33,200,20","Alejandro","Looks like finger nails from the Guinness world record book.,-30,80,20","Anthony","Ugly and bland compared to the other pieces.,-33,200,20","Brandon","Really don't like this. Kindergarten art, sorry.,-50,320,20","2"
"8211","","survey-text","52","228635","0.0-51.0-0.0","ATQJPX3S1JBVY","","","","{""Q0"":""This is very nice. I feel the winter in this one.""}","","","","","","","","","","","","","","","","","","","","","","",""
"2430.5","","image-slider-response","53","231068","0.0-52.0","ATQJPX3S1JBVY","","","","","32","","","","","","","","","","","","","","","","","","","","","",""
"4216","","image-button-response","54","236072","0.0-53.0","ATQJPX3S1JBVY","img_art/17.jpg","5","","","","","","","","","","","","","","","","","","","","","","","","",""
"339","","image-button-response","55","236416","0.0-54.0","ATQJPX3S1JBVY","img_art/17.jpg","3","","","","","","","","","","","","","","","","","","","","","","","","",""
"743","","image-button-response","56","237162","0.0-55.0-0.0","ATQJPX3S1JBVY","img_art/17.jpg","0","","","","","","","","","","","","","","","","","","","","","","","","",""
"1601","","image-button-response","57","238765","0.0-56.0-0.0","ATQJPX3S1JBVY","img_art/17.jpg","5","","","","","","","","","","","","","","","","","","","","","","","","",""
"null","","html-keyboard-response","58","240268","0.0-57.0","ATQJPX3S1JBVY","<p style=""font-size: 48px;"">+</p>","","","","","null","allTrialResponses","1500","1","2","img_art/17.jpg","32","This is very nice. I feel the winter in this one.","Brandon,Jose,Alejandro,Bryan,Aaron,Anthony","Love the color and nature motif,36,320,20","Looks like a weird blurry heaven again! I dig,32,200,20","Embodies beauty and complexity and in simplicity as well,50,80,20","Reminds me of winters in Minnesota.,48,400,20","it brings a clear picture to my minds eye:,45,20,20","Very elegant, this design reminds me of trees,31,200,20","Bryan","Reminds me of winters in Minnesota.,48,400,20","Brandon","Love the color and nature motif,36,320,20","Anthony","Very elegant, this design reminds me of trees,31,200,20","2"
"12280","","survey-text","59","252558","0.0-58.0-0.0","ATQJPX3S1JBVY","","","","{""Q0"":""A beautiful rollercoaster!""}","","","","","","","","","","","","","","","","","","","","","","",""
"2271.8000000715256","","image-slider-response","60","254832","0.0-59.0","ATQJPX3S1JBVY","","","","","36","","","","","","","","","","","","","","","","","","","","","",""
"null","","image-button-response","61","259835","0.0-60.0","ATQJPX3S1JBVY","img_art/10.jpg","null","","","","","","","","","","","","","","","","","","","","","","","","",""
"846","","image-button-response","62","260685","0.0-61.0","ATQJPX3S1JBVY","img_art/10.jpg","3","","","","","","","","","","","","","","","","","","","","","","","","",""
"2920","","image-button-response","63","263608","0.0-62.0-0.0","ATQJPX3S1JBVY","img_art/10.jpg","0","","","","","","","","","","","","","","","","","","","","","","","","",""
"891","","image-button-response","64","264501","0.0-63.0-0.0","ATQJPX3S1JBVY","img_art/10.jpg","0","","","","","","","","","","","","","","","","","","","","","","","","",""
"484","","image-button-response","65","267542","0.0-63.1-0.1","ATQJPX3S1JBVY","img_art/10.jpg","2","","","","","","","","","","","","","","","","","","","","","","","","",""
"null","","html-keyboard-response","66","268544","0.0-64.0","ATQJPX3S1JBVY","<p style=""font-size: 48px;"">+</p>","","","","","null","allTrialResponses","1000","1","3","img_art/10.jpg","36","A beautiful rollercoaster!","Brandon,Joseph,Matthew,Bryan,Kyle,Anthony","Too abstract and it doesn't really remind me of anything,-40,320,20","The loop type thing reminds me of interconnectedness and life and hope.,12,220,20","AWESOME VIOLIN!`,26,120,20","First impression was musical instrument then, because of the gray colors, death.,5,400,20","It's okay but not giving me the strongest reaction,6,340,20","I am neutral towards the artwork,1,200,20","Bryan","First impression was musical instrument then, because of the gray colors, death.,5,400,20","Brandon","Too abstract and it doesn't really remind me of anything,-40,320,20","Matthew","AWESOME VIOLIN!`,26,120,20","4"
"11150","","survey-text","67","279701","0.0-65.0-0.0","ATQJPX3S1JBVY","","","","{""Q0"":""Wow, total chaos. I love the face in the corner.""}","","","","","","","","","","","","","","","","","","","","","","",""
"3606.4000000953674","","image-slider-response","68","283309","0.0-66.0","ATQJPX3S1JBVY","","","","","35","","","","","","","","","","","","","","","","","","","","","",""
"3984","","image-button-response","69","288315","0.0-67.0","ATQJPX3S1JBVY","img_art/8.jpg","2","","","","","","","","","","","","","","","","","","","","","","","","",""
"865","","image-button-response","70","289184","0.0-68.0","ATQJPX3S1JBVY","img_art/8.jpg","2","","","","","","","","","","","","","","","","","","","","","","","","",""
"1172","","image-button-response","71","290358","0.0-69.0-0.0","ATQJPX3S1JBVY","img_art/8.jpg","1","","","","","","","","","","","","","","","","","","","","","","","","",""
"1440","","image-button-response","72","291801","0.0-70.0-0.0","ATQJPX3S1JBVY","img_art/8.jpg","4","","","","","","","","","","","","","","","","","","","","","","","","",""
"null","","html-keyboard-response","73","293302","0.0-71.0","ATQJPX3S1JBVY","<p style=""font-size: 48px;"">+</p>","","","","","null","allTrialResponses","1500","1","4","img_art/8.jpg","35","Wow, total chaos. I love the face in the corner.","Brandon,Luis,Matthew,Bryan,Garrett,Logan","Reminds me of old 80s fantasy book covers. Nostalgic,23,320,20","I love the expressiveness of this,50,400,20","Escher? Dali? Could be their lovechild?,50,120,20","Like the colors & the imagery - old city, native peoples maybe.,20,400,20","I like that it looks like a city and the way the shapes and colors are put together,40,180,20","a cute little cute with some protectors,25,360,20","Matthew","Escher? Dali? Could be their lovechild?,50,120,20","Luis","I love the expressiveness of this,50,400,20","Garrett","I like that it looks like a city and the way the shapes and colors are put together,40,180,20","4"
"11532","","survey-text","74","304841","0.0-72.0-0.0","ATQJPX3S1JBVY","","","","{""Q0"":""A polluted city. Quite ugly.""}","","","","","","","","","","","","","","","","","","","","","","",""
"2056.7000000476837","","image-slider-response","75","306900","0.0-73.0","ATQJPX3S1JBVY","","","","","-28","","","","","","","","","","","","","","","","","","","","","",""
"4281","","image-button-response","76","311904","0.0-74.0","ATQJPX3S1JBVY","img_art/19.jpg","3","","","","","","","","","","","","","","","","","","","","","","","","",""
"1040","","image-button-response","77","312949","0.0-75.0","ATQJPX3S1JBVY","img_art/19.jpg","3","","","","","","","","","","","","","","","","","","","","","","","","",""
"773","","image-button-response","78","313724","0.0-76.0-0.0","ATQJPX3S1JBVY","img_art/19.jpg","4","","","","","","","","","","","","","","","","","","","","","","","","",""
"742","","image-button-response","79","314468","0.0-77.0-0.0","ATQJPX3S1JBVY","img_art/19.jpg","1","","","","","","","","","","","","","","","","","","","","","","","","",""
"null","","html-keyboard-response","80","315470","0.0-78.0","ATQJPX3S1JBVY","<p style=""font-size: 48px;"">+</p>","","","","","null","allTrialResponses","1000","1","5","img_art/19.jpg","-28","A polluted city. Quite ugly.","Andrew,Luis,Matthew,Jordan,Garrett,Tristan","It reminds me of sitting at a cafe on the side of a river.,45,160,20","Gives a very open and freeing vibe,42,400,20","someone at the beach maybe?,27,120,20","I dont like the gray shadows, ruins it,-7,160,20","This looks like a bunch of weird blobs and the colors don't go great together.,-10,180,20","Though provoking. Adventurous.,10,300,20","Jordan","I dont like the gray shadows, ruins it,-7,160,20","Garrett","This looks like a bunch of weird blobs and the colors don't go great together.,-10,180,20","Luis","Gives a very open and freeing vibe,42,400,20","4"
"3684","","survey-text","81","319170","0.0-79.0-0.0","ATQJPX3S1JBVY","","","","{""Q0"":""sky""}","","","","","","","","","","","","","","","","","","","","","","",""
"8044","","survey-text","82","327216","0.0-80.0-0.0","ATQJPX3S1JBVY","","","","{""Q0"":""Wow, cool power lines. I like it.""}","","","","","","","","","","","","","","","","","","","","","","",""
"1516.6000000238419","","image-slider-response","83","328734","0.0-81.0","ATQJPX3S1JBVY","","","","","23","","","","","","","","","","","","","","","","","","","","","",""
"1989","","image-button-response","84","333737","0.0-82.0","ATQJPX3S1JBVY","img_art/11.jpg","0","","","","","","","","","","","","","","","","","","","","","","","","",""
"545","","image-button-response","85","334284","0.0-83.0","ATQJPX3S1JBVY","img_art/11.jpg","1","","","","","","","","","","","","","","","","","","","","","","","","",""
"429","","image-button-response","86","334715","0.0-84.0-0.0","ATQJPX3S1JBVY","img_art/11.jpg","0","","","","","","","","","","","","","","","","","","","","","","","","",""
"970","","image-button-response","87","335687","0.0-85.0-0.0","ATQJPX3S1JBVY","img_art/11.jpg","4","","","","","","","","","","","","","","","","","","","","","","","","",""
"null","","html-keyboard-response","88","336188","0.0-86.0","ATQJPX3S1JBVY","<p style=""font-size: 48px;"">+</p>","","","","","null","allTrialResponses","500","1","6","img_art/11.jpg","23","Wow, cool power lines. I like it.","Brian,Luis,Angel,Jordan,Garrett,Michael","this looks like a beautiful rainy day in a hellish urban mountain city,14,380,20","I love the city chaos from this,50,400,20","This is disorienting, like motion sickness.,-20,180,20","Rainy highways in RI,20,160,20","This looks like a bridge that has plenty of color.,10,180,20","It's kind of cool and I see it looks clean.,22,140,20","Luis","I love the city chaos from this,50,400,20","Brian","this looks like a beautiful rainy day in a hellish urban mountain city,14,380,20","Garrett","This looks like a bridge that has plenty of color.,10,180,20","4"
"8287","","survey-text","89","344483","0.0-87.0-0.0","ATQJPX3S1JBVY","","","","{""Q0"":""This is so creepy. Ew""}","","","","","","","","","","","","","","","","","","","","","","",""
"3616.7999999523163","","image-slider-response","90","348102","0.0-88.0","ATQJPX3S1JBVY","","","","","-47","","","","","","","","","","","","","","","","","","","","","",""
"3406","","image-button-response","91","353105","0.0-89.0","ATQJPX3S1JBVY","img_art/16.jpg","2","","","","","","","","","","","","","","","","","","","","","","","","",""
"233","","image-button-response","92","353341","0.0-90.0","ATQJPX3S1JBVY","img_art/16.jpg","2","","","","","","","","","","","","","","","","","","","","","","","","",""
"805","","image-button-response","93","354148","0.0-91.0-0.0","ATQJPX3S1JBVY","img_art/16.jpg","5","","","","","","","","","","","","","","","","","","","","","","","","",""
"630","","image-button-response","94","354780","0.0-92.0-0.0","ATQJPX3S1JBVY","img_art/16.jpg","1","","","","","","","","","","","","","","","","","","","","","","","","",""
"null","","html-keyboard-response","95","355282","0.0-93.0","ATQJPX3S1JBVY","<p style=""font-size: 48px;"">+</p>","","","","","null","allTrialResponses","500","1","7","img_art/16.jpg","-47","This is so creepy. Ew","Brian,Luis,Cody,Vincent,Garrett,Shane","I love the teddy bear,50,380,20","Kind of an edgy teenager vibe,32,400,20","Kind of creepyyyyyy,-41,180,20","Toys toys toys. Happy playful free spirit,30,360,20","I think this picture is weird and the colors are very boring.,-50,180,20","This looks chaotic,-25,80,20","Cody","Kind of creepyyyyyy,-41,180,20","Shane","This looks chaotic,-25,80,20","Luis","Kind of an edgy teenager vibe,32,400,20","4"
"9755","","survey-text","96","365041","0.0-94.0-0.0","ATQJPX3S1JBVY","","","","{""Q0"":""Looks like the desert? but not really?""}","","","","","","","","","","","","","","","","","","","","","","",""
"2249.3000000715256","","image-slider-response","97","367292","0.0-95.0","ATQJPX3S1JBVY","","","","","-41","","","","","","","","","","","","","","","","","","","","","",""
"2708","","image-button-response","98","372295","0.0-96.0","ATQJPX3S1JBVY","img_art/7.jpg","1","","","","","","","","","","","","","","","","","","","","","","","","",""
"519","","image-button-response","99","372818","0.0-97.0","ATQJPX3S1JBVY","img_art/7.jpg","2","","","","","","","","","","","","","","","","","","","","","","","","",""
"557","","image-button-response","100","373378","0.0-98.0-0.0","ATQJPX3S1JBVY","img_art/7.jpg","1","","","","","","","","","","","","","","","","","","","","","","","","",""
"748","","image-button-response","101","374128","0.0-99.0-0.0","ATQJPX3S1JBVY","img_art/7.jpg","4","","","","","","","","","","","","","","","","","","","","","","","","",""
"null","","html-keyboard-response","102","375631","0.0-100.0","ATQJPX3S1JBVY","<p style=""font-size: 48px;"">+</p>","","","","","null","allTrialResponses","1500","1","8","img_art/7.jpg","-41","Looks like the desert? but not really?","Nathan,Luis,Cody,Jesse,Nicholas,Shane","I don't like this kind of color scheme or look they went for,-50,200,20","Not getting the vibe i would like from this,-30,400,20","Cool, makes me think of archeology,15,180,20","Makes me think of the beach which makes me happy,14,80,20","Makes me want to feel it,19,240,20","Dessert like almost like dry land,4,80,20","Cody","Cool, makes me think of archeology,15,180,20","Luis","Not getting the vibe i would like from this,-30,400,20","Nicholas","Makes me want to feel it,19,240,20","4"
"18786","","survey-text","103","394425","0.0-101.0-0.0","ATQJPX3S1JBVY","","","","{""Q0"":""Is that a mouse? This reminds me of LSD""}","","","","","","","","","","","","","","","","","","","","","","",""
"3028.5","","image-slider-response","104","397456","0.0-102.0","ATQJPX3S1JBVY","","","","","28","","","","","","","","","","","","","","","","","","","","","",""
"4992","","image-button-response","105","402458","0.0-103.0","ATQJPX3S1JBVY","img_art/28.jpg","4","","","","","","","","","","","","","","","","","","","","","","","","",""
"838","","image-button-response","106","403298","0.0-104.0","ATQJPX3S1JBVY","img_art/28.jpg","4","","","","","","","","","","","","","","","","","","","","","","","","",""
"1304","","image-button-response","107","404604","0.0-105.0-0.0","ATQJPX3S1JBVY","img_art/28.jpg","2","","","","","","","","","","","","","","","","","","","","","","","","",""
"1245","","image-button-response","108","405852","0.0-106.0-0.0","ATQJPX3S1JBVY","img_art/28.jpg","1","","","","","","","","","","","","","","","","","","","","","","","","",""
"null","","html-keyboard-response","109","406353","0.0-107.0","ATQJPX3S1JBVY","<p style=""font-size: 48px;"">+</p>","","","","","null","allTrialResponses","500","1","9","img_art/28.jpg","28","Is that a mouse? This reminds me of LSD","Justin,Luis,Cody,Brendan,Nicholas,Mason","I don't like the colors or the design.,-20,280,20","Self-hate and abuse at home, unsafe and torturing,-30,400,20","Don't love the colors,-10,180,20","i dont understand it,-34,340,20","Interesting and weird. Perfect conversational piece,33,240,20","bland busy ugly,-31,100,20","Nicholas","Interesting and weird. Perfect conversational piece,33,240,20","Cody","Don't love the colors,-10,180,20","Luis","Self-hate and abuse at home, unsafe and torturing,-30,400,20","4"
"16357","","survey-text","110","422719","0.0-108.0-0.0","ATQJPX3S1JBVY","","","","{""Q0"":""I don't like the paint splatters at all.""}","","","","","","","","","","","","","","","","","","","","","","",""
"2969.8000000715256","","image-slider-response","111","425691","0.0-109.0","ATQJPX3S1JBVY","","","","","-32","","","","","","","","","","","","","","","","","","","","","",""
"4497","","image-button-response","112","430695","0.0-110.0","ATQJPX3S1JBVY","img_art/13.jpg","3","","","","","","","","","","","","","","","","","","","","","","","","",""
"658","","image-button-response","113","431357","0.0-111.0","ATQJPX3S1JBVY","img_art/13.jpg","3","","","","","","","","","","","","","","","","","","","","","","","","",""
"1386","","image-button-response","114","432745","0.0-112.0-0.0","ATQJPX3S1JBVY","img_art/13.jpg","2","","","","","","","","","","","","","","","","","","","","","","","","",""
"426","","image-button-response","115","433174","0.0-113.0-0.0","ATQJPX3S1JBVY","img_art/13.jpg","1","","","","","","","","","","","","","","","","","","","","","","","","",""
"null","","html-keyboard-response","116","434177","0.0-114.0","ATQJPX3S1JBVY","<p style=""font-size: 48px;"">+</p>","","","","","null","allTrialResponses","1000","1","10","img_art/13.jpg","-32","I don't like the paint splatters at all.","Mark,Luis,Cody,Paul,Nicholas,Jack","Raindrops on a window. Makes me feel like traveling.,31,80,20","I love the edgy nature,50,400,20","It's pretty ...........,41,180,20","It's like any other splatter paint art piece, nothing special,1,300,20","Nice colors. beautiful blue,50,240,20","exciting & chaotic. love the colors.,50,320,20","Paul","It's like any other splatter paint art piece, nothing special,1,300,20","Cody","It's pretty ...........,41,180,20","Luis","I love the edgy nature,50,400,20","4"
"3902","","survey-text","117","438099","0.0-115.0-0.0","ATQJPX3S1JBVY","","","","{""Q0"":""our""}","","","","","","","","","","","","","","","","","","","","","","",""
"12757","","survey-text","118","450857","0.0-116.0-0.0","ATQJPX3S1JBVY","","","","{""Q0"":""A bloody sea battle. Cool.""}","","","","","","","","","","","","","","","","","","","","","","",""
"1941.6999999284744","","image-slider-response","119","452801","0.0-117.0","ATQJPX3S1JBVY","","","","","26","","","","","","","","","","","","","","","","","","","","","",""
"3705","","image-button-response","120","457803","0.0-118.0","ATQJPX3S1JBVY","img_art/21.jpg","3","","","","","","","","","","","","","","","","","","","","","","","","",""
"130","","image-button-response","121","457936","0.0-119.0","ATQJPX3S1JBVY","img_art/21.jpg","3","","","","","","","","","","","","","","","","","","","","","","","","",""
"653","","image-button-response","122","458591","0.0-120.0-0.0","ATQJPX3S1JBVY","img_art/21.jpg","5","","","","","","","","","","","","","","","","","","","","","","","","",""
"814","","image-button-response","123","459407","0.0-121.0-0.0","ATQJPX3S1JBVY","img_art/21.jpg","2","","","","","","","","","","","","","","","","","","","","","","","","",""
"null","","html-keyboard-response","124","460909","0.0-122.0","ATQJPX3S1JBVY","<p style=""font-size: 48px;"">+</p>","","","","","null","allTrialResponses","1500","1","11","img_art/21.jpg","26","A bloody sea battle. Cool.","Shawn,Luis,Cody,Paul,Edward,Grant","Lovely colors and emotive effects. Turner-esque in a not-so derivative way.,44,100,20","I like the representation of love and hate in this,43,400,20","Pretty, good colors,30,180,20","I like the dark blue in the lower right which reminds me of a storm but the orange is ugly,12,300,20","I love how vague it is but how you can imagine a story anyway, like clouds,45,60,20","The colors make me think of a perilous scene at sea, and are pretty interesting.,15,200,20","Paul","I like the dark blue in the lower right which reminds me of a storm but the orange is ugly,12,300,20","Grant","The colors make me think of a perilous scene at sea, and are pretty interesting.,15,200,20","Cody","Pretty, good colors,30,180,20","4"
"6892","","survey-text","125","467808","0.0-123.0-0.0","ATQJPX3S1JBVY","","","","{""Q0"":""A bit kindergarten-ish.""}","","","","","","","","","","","","","","","","","","","","","","",""
"1773","","image-slider-response","126","469583","0.0-124.0","ATQJPX3S1JBVY","","","","","-7","","","","","","","","","","","","","","","","","","","","","",""
"3113","","image-button-response","127","474586","0.0-125.0","ATQJPX3S1JBVY","img_art/14.jpg","2","","","","","","","","","","","","","","","","","","","","","","","","",""
"795","","image-button-response","128","475384","0.0-126.0","ATQJPX3S1JBVY","img_art/14.jpg","5","","","","","","","","","","","","","","","","","","","","","","","","",""
"766","","image-button-response","129","476152","0.0-127.0-0.0","ATQJPX3S1JBVY","img_art/14.jpg","1","","","","","","","","","","","","","","","","","","","","","","","","",""
"1092","","image-button-response","130","477247","0.0-128.0-0.0","ATQJPX3S1JBVY","img_art/14.jpg","2","","","","","","","","","","","","","","","","","","","","","","","","",""
"null","","html-keyboard-response","131","477749","0.0-129.0","ATQJPX3S1JBVY","<p style=""font-size: 48px;"">+</p>","","","","","null","allTrialResponses","500","1","12","img_art/14.jpg","-7","A bit kindergarten-ish.","Corey,Jeremy,Cody,Paul,Richard,Grant","its okay. pretty bland but looks like nature,8,260,20","It didn't really do anything to excite me.,21,60,20","Don't love it.,-10,180,20","Just don't like it, maybe it's the bleeding colors on the left of the tree-looking thing in the center or the faded background,-10,300,20","the colors are peaceful and nature colors, soft,37,340,20","This elicits no reaction in me.,0,200,20","Grant","This elicits no reaction in me.,0,200,20","Jeremy","It didn't really do anything to excite me.,21,60,20","Cody","Don't love it.,-10,180,20","4"
"18931","","survey-text","132","496683","0.0-130.0-0.0","ATQJPX3S1JBVY","","","","{""Q0"":""I like the melting feel. Nice work, Gabison.""}","","","","","","","","","","","","","","","","","","","","","","",""
"2561.6999999284744","","image-slider-response","133","499247","0.0-131.0","ATQJPX3S1JBVY","","","","","22","","","","","","","","","","","","","","","","","","","","","",""
"null","","image-button-response","134","504250","0.0-132.0","ATQJPX3S1JBVY","img_art/20.jpg","null","","","","","","","","","","","","","","","","","","","","","","","","",""
"951","","image-button-response","135","505205","0.0-133.0","ATQJPX3S1JBVY","img_art/20.jpg","4","","","","","","","","","","","","","","","","","","","","","","","","",""
"1130","","image-button-response","136","506338","0.0-134.0-0.0","ATQJPX3S1JBVY","img_art/20.jpg","1","","","","","","","","","","","","","","","","","","","","","","","","",""
"633","","image-button-response","137","506974","0.0-135.0-0.0","ATQJPX3S1JBVY","img_art/20.jpg","2","","","","","","","","","","","","","","","","","","","","","","","","",""
"null","","html-keyboard-response","138","507976","0.0-136.0","ATQJPX3S1JBVY","<p style=""font-size: 48px;"">+</p>","","","","","null","allTrialResponses","1000","1","13","img_art/20.jpg","22","I like the melting feel. Nice work, Gabison.","Lucas,Jeremy,Cody,David,Evan,Grant","Phenomenal painting of building.,25,380,20","scared. makes me feel alone or abandoned,-11,60,20","I like the distortion of the objects, good colors,20,180,20","I like how the image is depicting a scene.,10,340,20","I feel intrigued and impressed,34,140,20","This elicits no reaction in me.,0,200,20","Evan","I feel intrigued and impressed,34,140,20","Jeremy","scared. makes me feel alone or abandoned,-11,60,20","Cody","I like the distortion of the objects, good colors,20,180,20","4"
"17429","","survey-text","139","525416","0.0-137.0-0.0","ATQJPX3S1JBVY","","","","{""Q0"":""I really like this! Sleeping in nature.""}","","","","","","","","","","","","","","","","","","","","","","",""
"1731.6000000238419","","image-slider-response","140","527150","0.0-138.0","ATQJPX3S1JBVY","","","","","35","","","","","","","","","","","","","","","","","","","","","",""
"4261","","image-button-response","141","532153","0.0-139.0","ATQJPX3S1JBVY","img_art/9.jpg","4","","","","","","","","","","","","","","","","","","","","","","","","",""
"637","","image-button-response","142","532795","0.0-140.0","ATQJPX3S1JBVY","img_art/9.jpg","4","","","","","","","","","","","","","","","","","","","","","","","","",""
"876","","image-button-response","143","533673","0.0-141.0-0.0","ATQJPX3S1JBVY","img_art/9.jpg","5","","","","","","","","","","","","","","","","","","","","","","","","",""
"2398","","image-button-response","144","536073","0.0-142.0-0.0","ATQJPX3S1JBVY","img_art/9.jpg","3","","","","","","","","","","","","","","","","","","","","","","","","",""
"null","","html-keyboard-response","145","536575","0.0-143.0","ATQJPX3S1JBVY","<p style=""font-size: 48px;"">+</p>","","","","","null","allTrialResponses","500","1","14","img_art/9.jpg","35","I really like this! Sleeping in nature.","Dakota,Jeremy,Cody,Sean,Evan,Scott","autopsy, morgue, dead corpses - don't like the flesh tones,-43,280,20","I feel this incites anger,-16,60,20","Feels angry .....,-40,180,20","Gives me anxiety,-23,40,20","It makes me think of Snow White sleeping,11,140,20","looks like someone resting,12,20,20","Evan","It makes me think of Snow White sleeping,11,140,20","Scott","looks like someone resting,12,20,20","Sean","Gives me anxiety,-23,40,20","4"
"7388","","survey-text","146","543972","0.0-144.0-0.0","ATQJPX3S1JBVY","","","","{""Q0"":""This is too choppy.""}","","","","","","","","","","","","","","","","","","","","","","",""
"2307.5","","image-slider-response","147","546282","0.0-145.0","ATQJPX3S1JBVY","","","","","-29","","","","","","","","","","","","","","","","","","","","","",""
"4591","","image-button-response","148","551285","0.0-146.0","ATQJPX3S1JBVY","img_art/12.jpg","1","","","","","","","","","","","","","","","","","","","","","","","","",""
"242","","image-button-response","149","551531","0.0-147.0","ATQJPX3S1JBVY","img_art/12.jpg","5","","","","","","","","","","","","","","","","","","","","","","","","",""
"554","","image-button-response","150","552088","0.0-148.0-0.0","ATQJPX3S1JBVY","img_art/12.jpg","3","","","","","","","","","","","","","","","","","","","","","","","","",""
"1267","","image-button-response","151","553357","0.0-149.0-0.0","ATQJPX3S1JBVY","img_art/12.jpg","1","","","","","","","","","","","","","","","","","","","","","","","","",""
"null","","html-keyboard-response","152","554859","0.0-150.0","ATQJPX3S1JBVY","<p style=""font-size: 48px;"">+</p>","","","","","null","allTrialResponses","1500","1","15","img_art/12.jpg","-29","This is too choppy.","Colton,Nathaniel,Bryce,Sean,Evan,Scott","i like the repetition,30,220,20","Too many blocks. I can't see a purpose or a focal point,-44,220,20","A little bit boring.,-24,20,20","my reaction is that the picture is wierd,-11,40,20","It reminds me of the documentary Paris is Burning, though I'm not sure why,11,140,20","I don't like the pattern or color choice,-41,20,20","Scott","I don't like the pattern or color choice,-41,20,20","Sean","my reaction is that the picture is wierd,-11,40,20","Nathaniel","Too many blocks. I can't see a purpose or a focal point,-44,220,20","4"
"2473","","survey-text","153","557339","0.0-151.0-0.0","ATQJPX3S1JBVY","","","","{""Q0"":""course""}","","","","","","","","","","","","","","","","","","","","","","",""
"7027","","survey-text","154","564367","0.0-152.0-0.0","ATQJPX3S1JBVY","","","","{""Q0"":""I like the style of the strokes.""}","","","","","","","","","","","","","","","","","","","","","","",""
"2246.4000000953674","","image-slider-response","155","566615","0.0-153.0","ATQJPX3S1JBVY","","","","","20","","","","","","","","","","","","","","","","","","","","","",""
"4711","","image-button-response","156","571618","0.0-154.0","ATQJPX3S1JBVY","img_art/30.jpg","4","","","","","","","","","","","","","","","","","","","","","","","","",""
"602","","image-button-response","157","572221","0.0-155.0","ATQJPX3S1JBVY","img_art/30.jpg","0","","","","","","","","","","","","","","","","","","","","","","","","",""
"1117","","image-button-response","158","573340","0.0-156.0-0.0","ATQJPX3S1JBVY","img_art/30.jpg","2","","","","","","","","","","","","","","","","","","","","","","","","",""
"720","","image-button-response","159","574062","0.0-157.0-0.0","ATQJPX3S1JBVY","img_art/30.jpg","0","","","","","","","","","","","","","","","","","","","","","","","","",""
"518","","image-button-response","160","576925","0.0-157.1-0.1","ATQJPX3S1JBVY","img_art/30.jpg","0","","","","","","","","","","","","","","","","","","","","","","","","",""
"503","","image-button-response","161","580811","0.0-157.2-0.2","ATQJPX3S1JBVY","img_art/30.jpg","4","","","","","","","","","","","","","","","","","","","","","","","","",""
"null","","html-keyboard-response","162","582313","0.0-158.0","ATQJPX3S1JBVY","<p style=""font-size: 48px;"">+</p>","","","","","null","allTrialResponses","1500","1","16","img_art/30.jpg","20","I like the style of the strokes.","Taylor,Nathaniel,Tyler,Sean,Elijah,Scott","My kid drew this same picture at daycare!!!,5,200,20","No my favorite, but I do like the long strokes of color,11,220,20","Interesting brushstroke work, but not particularly memorable.,21,320,20","the colors look nice,19,40,20","Paint scribbled on canvas,-25,80,20","nothing special about it,1,20,20","Taylor","My kid drew this same picture at daycare!!!,5,200,20","Tyler","Interesting brushstroke work, but not particularly memorable.,21,320,20","Elijah","Paint scribbled on canvas,-25,80,20","8"
"6374","","survey-text","163","588703","0.0-159.0-0.0","ATQJPX3S1JBVY","","","","{""Q0"":""This is awesome.""}","","","","","","","","","","","","","","","","","","","","","","",""
"1874.5","","image-slider-response","164","590580","0.0-160.0","ATQJPX3S1JBVY","","","","","49","","","","","","","","","","","","","","","","","","","","","",""
"4429","","image-button-response","165","595582","0.0-161.0","ATQJPX3S1JBVY","img_art/6.jpg","4","","","","","","","","","","","","","","","","","","","","","","","","",""
"4586","","image-button-response","166","600172","0.0-162.0","ATQJPX3S1JBVY","img_art/6.jpg","4","","","","","","","","","","","","","","","","","","","","","","","","",""
"574","","image-button-response","167","600748","0.0-163.0-0.0","ATQJPX3S1JBVY","img_art/6.jpg","5","","","","","","","","","","","","","","","","","","","","","","","","",""
"755","","image-button-response","168","601505","0.0-164.0-0.0","ATQJPX3S1JBVY","img_art/6.jpg","1","","","","","","","","","","","","","","","","","","","","","","","","",""
"null","","html-keyboard-response","169","603006","0.0-165.0","ATQJPX3S1JBVY","<p style=""font-size: 48px;"">+</p>","","","","","null","allTrialResponses","1500","1","17","img_art/6.jpg","49","This is awesome.","Taylor,Noah,Tyler,Peter,Elijah,Derek","A crow on one leg?,-10,200,20","intrigues me - not sure what I'm seeing, but I like combination of colour and texture,21,260,20","Is this the villain from Despicable Me?,29,320,20","Don't like the black space,2,320,20","Not impressed, just very plain,-10,80,20","Too basic for me,-20,360,20","Elijah","Not impressed, just very plain,-10,80,20","Derek","Too basic for me,-20,360,20","Noah","intrigues me - not sure what I'm seeing, but I like combination of colour and texture,21,260,20","8"
"13150","","survey-text","170","616160","0.0-166.0-0.0","ATQJPX3S1JBVY","","","","{""Q0"":""What are the green scribbles? Gah.""}","","","","","","","","","","","","","","","","","","","","","","",""
"1894.6999999284744","","image-slider-response","171","618057","0.0-167.0","ATQJPX3S1JBVY","","","","","-30","","","","","","","","","","","","","","","","","","","","","",""
"3653","","image-button-response","172","623059","0.0-168.0","ATQJPX3S1JBVY","img_art/27.jpg","4","","","","","","","","","","","","","","","","","","","","","","","","",""
"531","","image-button-response","173","623592","0.0-169.0","ATQJPX3S1JBVY","img_art/27.jpg","2","","","","","","","","","","","","","","","","","","","","","","","","",""
"542","","image-button-response","174","624136","0.0-170.0-0.0","ATQJPX3S1JBVY","img_art/27.jpg","4","","","","","","","","","","","","","","","","","","","","","","","","",""
"848","","image-button-response","175","624986","0.0-171.0-0.0","ATQJPX3S1JBVY","img_art/27.jpg","0","","","","","","","","","","","","","","","","","","","","","","","","",""
"null","","html-keyboard-response","176","626488","0.0-172.0","ATQJPX3S1JBVY","<p style=""font-size: 48px;"">+</p>","","","","","null","allTrialResponses","1500","1","18","img_art/27.jpg","-30","What are the green scribbles? Gah.","Devin,Noah,Chase,Blake,Elijah,Derek","Looks like the green bits were added on later,-1,380,20","I generally enjoy the style, but I'm finding the green lines grating,-9,260,20","I don't really see anything to this art.,-5,120,20","fruity and sweet. warm and juicy,10,280,20","Not too impressed with the work,6,80,20","I love the mood of this painting,30,360,20","Chase","I don't really see anything to this art.,-5,120,20","Elijah","Not too impressed with the work,6,80,20","Devin","Looks like the green bits were added on later,-1,380,20","8"
"9199","","survey-text","177","635698","0.0-173.0-0.0","ATQJPX3S1JBVY","","","","{""Q0"":""This is just garbage. GARBAGE!""}","","","","","","","","","","","","","","","","","","","","","","",""
"1605.2000000476837","","image-slider-response","178","637305","0.0-174.0","ATQJPX3S1JBVY","","","","","-44","","","","","","","","","","","","","","","","","","","","","",""
"4507","","image-button-response","179","642307","0.0-175.0","ATQJPX3S1JBVY","img_art/1.jpg","5","","","","","","","","","","","","","","","","","","","","","","","","",""
"668","","image-button-response","180","642978","0.0-176.0","ATQJPX3S1JBVY","img_art/1.jpg","0","","","","","","","","","","","","","","","","","","","","","","","","",""
"872","","image-button-response","181","643852","0.0-177.0-0.0","ATQJPX3S1JBVY","img_art/1.jpg","5","","","","","","","","","","","","","","","","","","","","","","","","",""
"1691","","image-button-response","182","645545","0.0-178.0-0.0","ATQJPX3S1JBVY","img_art/1.jpg","4","","","","","","","","","","","","","","","","","","","","","","","","",""
"null","","html-keyboard-response","183","647048","0.0-179.0","ATQJPX3S1JBVY","<p style=""font-size: 48px;"">+</p>","","","","","null","allTrialResponses","1500","1","19","img_art/1.jpg","-44","This is just garbage. GARBAGE!","Devin,Juan,Chase,Jesus,Elijah,Connor","Quite messy looking,-22,380,20","I don't like how this one makes me feel.,-32,260,20","It's alright but lacks any depth.,-5,120,20","I like the simple aspect to the design,21,100,20","Makes me feel confused,-6,80,20","Love the coloration and abstract figures,18,240,20","Devin","Quite messy looking,-22,380,20","Connor","Love the coloration and abstract figures,18,240,20","Elijah","Makes me feel confused,-6,80,20","8"
"11406","","survey-text","184","658468","0.0-180.0-0.0","ATQJPX3S1JBVY","","","","{""Q0"":""I respect how long all the spots took, at least.""}","","","","","","","","","","","","","","","","","","","","","","",""
"2401.2999999523163","","image-slider-response","185","660871","0.0-181.0","ATQJPX3S1JBVY","","","","","5","","","","","","","","","","","","","","","","","","","","","",""
"4228","","image-button-response","186","665874","0.0-182.0","ATQJPX3S1JBVY","img_art/15.jpg","4","","","","","","","","","","","","","","","","","","","","","","","","",""
"553","","image-button-response","187","666429","0.0-183.0","ATQJPX3S1JBVY","img_art/15.jpg","4","","","","","","","","","","","","","","","","","","","","","","","","",""
"443","","image-button-response","188","666874","0.0-184.0-0.0","ATQJPX3S1JBVY","img_art/15.jpg","5","","","","","","","","","","","","","","","","","","","","","","","","",""
"686","","image-button-response","189","667562","0.0-185.0-0.0","ATQJPX3S1JBVY","img_art/15.jpg","0","","","","","","","","","","","","","","","","","","","","","","","","",""
"null","","html-keyboard-response","190","668564","0.0-186.0","ATQJPX3S1JBVY","<p style=""font-size: 48px;"">+</p>","","","","","null","allTrialResponses","1000","1","20","img_art/15.jpg","5","I respect how long all the spots took, at least.","Devin,Kenneth,Steven,Carlos,Elijah,Connor","Simple but needs some more detail somehow,-3,380,20","I can't really make out what this is supposed to be.,-8,300,20","I'm just not into it,-5,160,20","It is visually appealing, stark and simple but natural.,41,80,20","Makes me feel weird,-16,80,20","Neat to explore meaning, blue is interesting,11,240,20","Elijah","Makes me feel weird,-16,80,20","Connor","Neat to explore meaning, blue is interesting,11,240,20","Devin","Simple but needs some more detail somehow,-3,380,20","8"
"2918","","survey-text","191","671496","0.0-187.0-0.0","ATQJPX3S1JBVY","","","","{""Q0"":""we""}","","","","","","","","","","","","","","","","","","","","","","",""
"20260","","survey-text","192","691757","0.0-188.0-0.0","ATQJPX3S1JBVY","","","","{""Q0"":""I see a face. Cool.""}","","","","","","","","","","","","","","","","","","","","","","",""
"1843.2999999523163","","image-slider-response","193","693602","0.0-189.0","ATQJPX3S1JBVY","","","","","16","","","","","","","","","","","","","","","","","","","","","",""
"4932","","image-button-response","194","698604","0.0-190.0","ATQJPX3S1JBVY","img_art/2.jpg","5","","","","","","","","","","","","","","","","","","","","","","","","",""
"616","","image-button-response","195","699224","0.0-191.0","ATQJPX3S1JBVY","img_art/2.jpg","5","","","","","","","","","","","","","","","","","","","","","","","","",""
"1225","","image-button-response","196","700451","0.0-192.0-0.0","ATQJPX3S1JBVY","img_art/2.jpg","2","","","","","","","","","","","","","","","","","","","","","","","","",""
"685","","image-button-response","197","701138","0.0-193.0-0.0","ATQJPX3S1JBVY","img_art/2.jpg","1","","","","","","","","","","","","","","","","","","","","","","","","",""
"null","","html-keyboard-response","198","702141","0.0-194.0","ATQJPX3S1JBVY","<p style=""font-size: 48px;"">+</p>","","","","","null","allTrialResponses","1000","1","21","img_art/2.jpg","16","I see a face. Cool.","Devin,Mitchell,Spencer,Ian,Elijah,Connor","I don't really like this style,-5,380,20","Dependence. Things relying on each other. Caring,-4,180,20","Kind of looks upside down, I need a focal point,-29,120,20","I don't really like this but at the same time it's cute. It looks like a little monster kid.,-9,260,20","It's just a splash of paint on a canvas,-31,80,20","There is an odd face here that is creepy,-4,240,20","Connor","There is an odd face here that is creepy,-4,240,20","Spencer","Kind of looks upside down, I need a focal point,-29,120,20","Mitchell","Dependence. Things relying on each other. Caring,-4,180,20","8"
"9832","","survey-text","199","711991","0.0-195.0-0.0","ATQJPX3S1JBVY","","","","{""Q0"":""I like this. Very eerie.""}","","","","","","","","","","","","","","","","","","","","","","",""
"3154.2999999523163","","image-slider-response","200","715149","0.0-196.0","ATQJPX3S1JBVY","","","","","41","","","","","","","","","","","","","","","","","","","","","",""
"null","","image-button-response","201","720156","0.0-197.0","ATQJPX3S1JBVY","img_art/25.jpg","null","","","","","","","","","","","","","","","","","","","","","","","","",""
"305","","image-button-response","202","720464","0.0-198.0","ATQJPX3S1JBVY","img_art/25.jpg","0","","","","","","","","","","","","","","","","","","","","","","","","",""
"694","","image-button-response","203","721161","0.0-199.0-0.0","ATQJPX3S1JBVY","img_art/25.jpg","2","","","","","","","","","","","","","","","","","","","","","","","","",""
"832","","image-button-response","204","721996","0.0-200.0-0.0","ATQJPX3S1JBVY","img_art/25.jpg","5","","","","","","","","","","","","","","","","","","","","","","","","",""
"null","","html-keyboard-response","205","722997","0.0-201.0","ATQJPX3S1JBVY","<p style=""font-size: 48px;"">+</p>","","","","","null","allTrialResponses","1000","1","22","img_art/25.jpg","41","I like this. Very eerie.","Christian,Mitchell,Spencer,Cameron,Kevin,Connor","I'm sorry but I don't uderstand this,-20,140,20","culture, tradition. Village people with an honored elder.,40,180,20","I really like it, very simple, very tribal,38,120,20","Like the color, but what is that thing.,-10,60,20","That on i find a bit creapy.,-19,320,20","Looks like glow in the dark halloween decoration,-38,240,20","Christian","I'm sorry but I don't uderstand this,-20,140,20","Spencer","I really like it, very simple, very tribal,38,120,20","Connor","Looks like glow in the dark halloween decoration,-38,240,20","8"
"10658","","survey-text","206","733662","0.0-202.0-0.0","ATQJPX3S1JBVY","","","","{""Q0"":""This is a drawing of nothing ""}","","","","","","","","","","","","","","","","","","","","","","",""
"1958.5","","image-slider-response","207","735622","0.0-203.0","ATQJPX3S1JBVY","","","","","-25","","","","","","","","","","","","","","","","","","","","","",""
"4877","","image-button-response","208","740627","0.0-204.0","ATQJPX3S1JBVY","img_art/5.jpg","3","","","","","","","","","","","","","","","","","","","","","","","","",""
"348","","image-button-response","209","740979","0.0-205.0","ATQJPX3S1JBVY","img_art/5.jpg","3","","","","","","","","","","","","","","","","","","","","","","","","",""
"338","","image-button-response","210","741319","0.0-206.0-0.0","ATQJPX3S1JBVY","img_art/5.jpg","4","","","","","","","","","","","","","","","","","","","","","","","","",""
"1120","","image-button-response","211","742440","0.0-207.0-0.0","ATQJPX3S1JBVY","img_art/5.jpg","0","","","","","","","","","","","","","","","","","","","","","","","","",""
"null","","html-keyboard-response","212","742943","0.0-208.0","ATQJPX3S1JBVY","<p style=""font-size: 48px;"">+</p>","","","","","null","allTrialResponses","500","1","23","img_art/5.jpg","-25","This is a drawing of nothing ","Christian,Jonathan,Spencer,Alexis,Robert,Connor","sorry not my style,-37,140,20","I hate the shapes,-30,140,20","Boring, no flow except the pink feathery band,-42,120,20","I am confused as to what this is supposed to be,6,140,20","This did not do a thing for me.,-50,360,20","Flame, candle, wind,30,240,20","Alexis","I am confused as to what this is supposed to be,6,140,20","Robert","This did not do a thing for me.,-50,360,20","Christian","sorry not my style,-37,140,20","8"
"12506","","survey-text","213","755457","0.0-209.0-0.0","ATQJPX3S1JBVY","","","","{""Q0"":""I love the attention to detail here.""}","","","","","","","","","","","","","","","","","","","","","","",""
"1455.8999999761581","","image-slider-response","214","756915","0.0-210.0","ATQJPX3S1JBVY","","","","","35","","","","","","","","","","","","","","","","","","","","","",""
"2075","","image-button-response","215","761918","0.0-211.0","ATQJPX3S1JBVY","img_art/18.jpg","0","","","","","","","","","","","","","","","","","","","","","","","","",""
"1122","","image-button-response","216","763044","0.0-212.0","ATQJPX3S1JBVY","img_art/18.jpg","4","","","","","","","","","","","","","","","","","","","","","","","","",""
"1619","","image-button-response","217","764664","0.0-213.0-0.0","ATQJPX3S1JBVY","img_art/18.jpg","4","","","","","","","","","","","","","","","","","","","","","","","","",""
"366","","image-button-response","218","766296","0.0-213.1-0.1","ATQJPX3S1JBVY","img_art/18.jpg","3","","","","","","","","","","","","","","","","","","","","","","","","",""
"540","","image-button-response","219","766839","0.0-214.0-0.0","ATQJPX3S1JBVY","img_art/18.jpg","2","","","","","","","","","","","","","","","","","","","","","","","","",""
"null","","html-keyboard-response","220","767842","0.0-215.0","ATQJPX3S1JBVY","<p style=""font-size: 48px;"">+</p>","","","","","null","allTrialResponses","1000","1","24","img_art/18.jpg","35","I love the attention to detail here.","Christian,Ethan,Stephen,Alexis,Robert,Zachary","reminds me of the little prince, with the color scheme and all,16,140,20","I like the expression of this piece. The colors are very outdated though.,-5,120,20","Too abstract to me,-30,140,20","It's possibly of a mermaid luring in a ship,15,140,20","It made me think of a car crash,-39,360,20","This one seems rather ghoulish to me.,-41,400,20","Robert","It made me think of a car crash,-39,360,20","Alexis","It's possibly of a mermaid luring in a ship,15,140,20","Stephen","Too abstract to me,-30,140,20","10"
"14043","","survey-text","221","781894","0.0-216.0-0.0","ATQJPX3S1JBVY","","","","{""Q0"":""I love the lighting! Wow.""}","","","","","","","","","","","","","","","","","","","","","","",""
"2895.5","","image-slider-response","222","784792","0.0-217.0","ATQJPX3S1JBVY","","","","","30","","","","","","","","","","","","","","","","","","","","","",""
"null","","image-button-response","223","789801","0.0-218.0","ATQJPX3S1JBVY","img_art/29.jpg","null","","","","","","","","","","","","","","","","","","","","","","","","",""
"689","","image-button-response","224","790495","0.0-219.0","ATQJPX3S1JBVY","img_art/29.jpg","0","","","","","","","","","","","","","","","","","","","","","","","","",""
"2073","","image-button-response","225","792571","0.0-220.0-0.0","ATQJPX3S1JBVY","img_art/29.jpg","4","","","","","","","","","","","","","","","","","","","","","","","","",""
"2758","","image-button-response","226","795331","0.0-221.0-0.0","ATQJPX3S1JBVY","img_art/29.jpg","3","","","","","","","","","","","","","","","","","","","","","","","","",""
"null","","html-keyboard-response","227","796334","0.0-222.0","ATQJPX3S1JBVY","<p style=""font-size: 48px;"">+</p>","","","","","null","allTrialResponses","1000","1","25","img_art/29.jpg","30","I love the lighting! Wow.","Marcus,Timothy,Stephen,Alexis,Robert,John","I would like this piece better without the red X across it,-10,60,20","Doesnt say much for me,0,240,20","Really enjoy everything about this one.,50,140,20","I like that it looks like a scene from perhaps a failed painted project,10,140,20","Looks like a murder,-50,360,20","Its interesting although doesnt illicit any strong emotions from me,10,120,20","Marcus","I would like this piece better without the red X across it,-10,60,20","Robert","Looks like a murder,-50,360,20","Alexis","I like that it looks like a scene from perhaps a failed painted project,10,140,20","10"
"5427","","survey-text","228","801790","0.0-223.0-0.0","ATQJPX3S1JBVY","","","","{""Q0"":""table""}","","","","","","","","","","","","","","","","","","","","","","",""
"17759","","survey-text","229","819550","0.0-224.0-0.0","ATQJPX3S1JBVY","","","","{""Q0"":""I'm missing the point of this one""}","","","","","","","","","","","","","","","","","","","","","","",""
"2179.100000023842","","image-slider-response","230","821731","0.0-225.0","ATQJPX3S1JBVY","","","","","-17","","","","","","","","","","","","","","","","","","","","","",""
"2405","","image-button-response","231","826734","0.0-226.0","ATQJPX3S1JBVY","img_art/22.jpg","2","","","","","","","","","","","","","","","","","","","","","","","","",""
"430","","image-button-response","232","827169","0.0-227.0","ATQJPX3S1JBVY","img_art/22.jpg","2","","","","","","","","","","","","","","","","","","","","","","","","",""
"1331","","image-button-response","233","828502","0.0-228.0-0.0","ATQJPX3S1JBVY","img_art/22.jpg","3","","","","","","","","","","","","","","","","","","","","","","","","",""
"538","","image-button-response","234","829042","0.0-229.0-0.0","ATQJPX3S1JBVY","img_art/22.jpg","4","","","","","","","","","","","","","","","","","","","","","","","","",""
"null","","html-keyboard-response","235","830544","0.0-230.0","ATQJPX3S1JBVY","<p style=""font-size: 48px;"">+</p>","","","","","null","allTrialResponses","1500","1","26","img_art/22.jpg","-17","I'm missing the point of this one","Marcus,Joshua,Isaac,Alexis,Robert,Trevor","Like the colors. I enjoy looking at this one.,15,60,20","This one would work in the right frame. It's nice.,20,240,20","The colors clash, and I don't know what is happening.,-23,280,20","Neither like nor dislike it. The red, yellow and blue colors are bright but I don't know what it's meant to be.,1,140,20","I don't get much of a reaction.,11,360,20","i like the colors but it looks too 80s for me,7,280,20","Isaac","The colors clash, and I don't know what is happening.,-23,280,20","Alexis","Neither like nor dislike it. The red, yellow and blue colors are bright but I don't know what it's meant to be.,1,140,20","Robert","I don't get much of a reaction.,11,360,20","10"
"43268","","survey-text","236","873825","0.0-231.0-0.0","ATQJPX3S1JBVY","","","","{""Q0"":""What am I looking at? Weird.""}","","","","","","","","","","","","","","","","","","","","","","",""
"1507","","image-slider-response","237","875334","0.0-232.0","ATQJPX3S1JBVY","","","","","-31","","","","","","","","","","","","","","","","","","","","","",""
"null","","image-button-response","238","880337","0.0-233.0","ATQJPX3S1JBVY","img_art/23.jpg","null","","","","","","","","","","","","","","","","","","","","","","","","",""
"666","","image-button-response","239","881005","0.0-234.0","ATQJPX3S1JBVY","img_art/23.jpg","3","","","","","","","","","","","","","","","","","","","","","","","","",""
"1523","","image-button-response","240","882530","0.0-235.0-0.0","ATQJPX3S1JBVY","img_art/23.jpg","0","","","","","","","","","","","","","","","","","","","","","","","","",""
"637","","image-button-response","241","883169","0.0-236.0-0.0","ATQJPX3S1JBVY","img_art/23.jpg","5","","","","","","","","","","","","","","","","","","","","","","","","",""
"null","","html-keyboard-response","242","884170","0.0-237.0","ATQJPX3S1JBVY","<p style=""font-size: 48px;"">+</p>","","","","","null","allTrialResponses","1000","1","27","img_art/23.jpg","-31","What am I looking at? Weird.","Adam,Tanner,Isaac,Alexis,Robert,Gregory","I like the color contrast, though I'm unable to tell what the white shapes are.,25,40,20","fsiries, happy, spiritual,16,180,20","I like the royal colors.,38,280,20","It looks like a parade of musicians full of excitement. Makes me feel upbeat,33,140,20","This makes me think of an orchestra playing a forth of july song,12,360,20","Reminds me of outer space and the stars,30,220,20","Alexis","It looks like a parade of musicians full of excitement. Makes me feel upbeat,33,140,20","Adam","I like the color contrast, though I'm unable to tell what the white shapes are.,25,40,20","Gregory","Reminds me of outer space and the stars,30,220,20","10"
"7518","","survey-text","243","891713","0.0-238.0-0.0","ATQJPX3S1JBVY","","","","{""Q0"":""Scribbles for days. I've had enough.""}","","","","","","","","","","","","","","","","","","","","","","",""
"1881.7999999523163","","image-slider-response","244","893596","0.0-239.0","ATQJPX3S1JBVY","","","","","-44","","","","","","","","","","","","","","","","","","","","","",""
"null","","image-button-response","245","898600","0.0-240.0","ATQJPX3S1JBVY","img_art/3.jpg","null","","","","","","","","","","","","","","","","","","","","","","","","",""
"9618","","image-button-response","246","908220","0.0-241.0","ATQJPX3S1JBVY","img_art/3.jpg","0","","","","","","","","","","","","","","","","","","","","","","","","",""
"606","","image-button-response","247","908828","0.0-242.0-0.0","ATQJPX3S1JBVY","img_art/3.jpg","2","","","","","","","","","","","","","","","","","","","","","","","","",""
"67946","","image-button-response","248","976776","0.0-243.0-0.0","ATQJPX3S1JBVY","img_art/3.jpg","1","","","","","","","","","","","","","","","","","","","","","","","","",""
"null","","html-keyboard-response","249","977277","0.0-244.0","ATQJPX3S1JBVY","<p style=""font-size: 48px;"">+</p>","","","","","null","allTrialResponses","500","1","28","img_art/3.jpg","-44","Scribbles for days. I've had enough.","Adam,Ryan,Antonio,Alexis,James,Gregory","Reminds me of a hot mess,-10,40,20","Looks like someone threw blood at a wall,-50,380,20","The red makes me think of blood which makes me think of pain,-50,220,20","It looks like a child drawing,-29,140,20","It's very plain,-20,380,20","Looks like somebody squirted ketchup everywhere,-40,220,20","Adam","Reminds me of a hot mess,-10,40,20","Antonio","The red makes me think of blood which makes me think of pain,-50,220,20","Ryan","Looks like someone threw blood at a wall,-50,380,20","10"
"5894","","survey-text","250","983178","0.0-245.0-0.0","ATQJPX3S1JBVY","","","","{""Q0"":""This feels unfinished.""}","","","","","","","","","","","","","","","","","","","","","","",""
"1240.8999999761581","","image-slider-response","251","984421","0.0-246.0","ATQJPX3S1JBVY","","","","","-25","","","","","","","","","","","","","","","","","","","","","",""
"4159","","image-button-response","252","989424","0.0-247.0","ATQJPX3S1JBVY","img_art/26.jpg","0","","","","","","","","","","","","","","","","","","","","","","","","",""
"296","","image-button-response","253","989724","0.0-248.0","ATQJPX3S1JBVY","img_art/26.jpg","0","","","","","","","","","","","","","","","","","","","","","","","","",""
"550","","image-button-response","254","990276","0.0-249.0-0.0","ATQJPX3S1JBVY","img_art/26.jpg","3","","","","","","","","","","","","","","","","","","","","","","","","",""
"442","","image-button-response","255","990721","0.0-250.0-0.0","ATQJPX3S1JBVY","img_art/26.jpg","5","","","","","","","","","","","","","","","","","","","","","","","","",""
"null","","html-keyboard-response","256","991223","0.0-251.0","ATQJPX3S1JBVY","<p style=""font-size: 48px;"">+</p>","","","","","null","allTrialResponses","500","1","29","img_art/26.jpg","-25","This feels unfinished.","Adam,Ryan,Antonio,Jeffrey,Malik,Patrick","pretty colors, but sketch style isn't for me,10,40,20","Pleasant to look at,28,380,20","Calming and relaxing,28,220,20","very relaxing and easy going,22,40,20","Feels like still life,-13,40,20","I can somewhat city a city in this drawing,11,280,20","Adam","pretty colors, but sketch style isn't for me,10,40,20","Jeffrey","very relaxing and easy going,22,40,20","Patrick","I can somewhat city a city in this drawing,11,280,20","10"
"7021","","survey-text","257","998254","0.0-252.0-0.0","ATQJPX3S1JBVY","","","","{""Q0"":""Wow! So beautiful.""}","","","","","","","","","","","","","","","","","","","","","","",""
"2192.7999999523163","","image-slider-response","258","1000448","0.0-253.0","ATQJPX3S1JBVY","","","","","38","","","","","","","","","","","","","","","","","","","","","",""
"4769","","image-button-response","259","1005450","0.0-254.0","ATQJPX3S1JBVY","img_art/24.jpg","2","","","","","","","","","","","","","","","","","","","","","","","","",""
"412","","image-button-response","260","1005864","0.0-255.0","ATQJPX3S1JBVY","img_art/24.jpg","5","","","","","","","","","","","","","","","","","","","","","","","","",""
"618","","image-button-response","261","1006484","0.0-256.0-0.0","ATQJPX3S1JBVY","img_art/24.jpg","0","","","","","","","","","","","","","","","","","","","","","","","","",""
"534","","image-button-response","262","1007020","0.0-257.0-0.0","ATQJPX3S1JBVY","img_art/24.jpg","2","","","","","","","","","","","","","","","","","","","","","","","","",""
"null","","html-keyboard-response","263","1007522","0.0-258.0","ATQJPX3S1JBVY","<p style=""font-size: 48px;"">+</p>","","","","","null","allTrialResponses","500","1","30","img_art/24.jpg","38","Wow! So beautiful.","Adam,Benjamin,Jason,Jeffrey,Christopher,Patrick","I appreciate the earth tones. Soothing.,5,40,20","peaceful and calm yet joyous.,50,260,20","I like the bright colors,16,20,20","Very refreshing and vigorous,19,40,20","it's fine, the colors are pleasing, but not my taste,9,160,20","Beautiful scenic drawing with perfect color coordination,43,280,20","Patrick","Beautiful scenic drawing with perfect color coordination,43,280,20","Adam","I appreciate the earth tones. Soothing.,5,40,20","Jason","I like the bright colors,16,20,20","10"
"1729","","image-button-response_instructions","264","1009256","0.0-259.0","ATQJPX3S1JBVY","","0","instructions","","","","","","","","","","","","","","","","","","","","","","","",""
"16062","","image-button-response","265","1025324","0.0-260.0","ATQJPX3S1JBVY","","0","","","","","","","","","","","","","","","","","","","","","","","","",""
