"rt","url","trial_type","trial_index","time_elapsed","internal_node_id","participant_id","stimulus","button_pressed","Name","responses","response","key_press","variableName","fixationTime","condition","trial","photo","subjectRating","subjectResponse","agentsNames","agent_1_Response","agent_2_Response","agent_3_Response","agent_4_Response","agent_5_Response","agent_6_Response","kept_1_name","kept_1_response","kept_2_name","kept_2_response","kept_3_name","kept_3_response","errorCounter"
"125372","external_page_harvard.html","external-html","0","125467","0.0-0.0","ATUA5M7PLS8W3","","","","","","","","","","","","","","","","","","","","","","","","","","",""
"1699","","image-button-response","1","127176","0.0-1.0","ATUA5M7PLS8W3","","0","","","","","","","","","","","","","","","","","","","","","","","","",""
"8971","","image-button-response","2","136152","0.0-2.0-0.0","ATUA5M7PLS8W3","","1","phone","","","","","","","","","","","","","","","","","","","","","","","",""
"5198","","survey-text","3","141352","0.0-3.0-0.0","ATUA5M7PLS8W3","","","","{""Q0"":""ATUA5M7PLS8W3""}","","","","","","","","","","","","","","","","","","","","","","",""
"26117","","image-button-response_instructions","4","167471","0.0-4.0","ATUA5M7PLS8W3","","0","instructions","","","","","","","","","","","","","","","","","","","","","","","",""
"21799","","image-button-response_instructions","5","189272","0.0-5.0","ATUA5M7PLS8W3","img_art/ins/popularity/ins1.png","0","instructions","","","","","","","","","","","","","","","","","","","","","","","",""
"5616","","image-button-response_instructions","6","194889","0.0-6.0","ATUA5M7PLS8W3","img_art/ins/popularity/ins2.png","0","instructions","","","","","","","","","","","","","","","","","","","","","","","",""
"93205","","image-button-response_instructions","7","288095","0.0-7.0","ATUA5M7PLS8W3","img_art/ins/popularity/ins2Extreme.png","0","instructions","","","","","","","","","","","","","","","","","","","","","","","",""
"16336","","image-button-response_instructions","8","304431","0.0-8.0","ATUA5M7PLS8W3","img_art/ins/popularity/ins3KEEPpop.PNG","0","instructions","","","","","","","","","","","","","","","","","","","","","","","",""
"4432","","image-button-response_instructions","9","308864","0.0-9.0","ATUA5M7PLS8W3","img_art/ins/popularity/ins3ANamepop.PNG","0","instructions","","","","","","","","","","","","","","","","","","","","","","","",""
"4061","","image-button-response_instructions","10","312927","0.0-10.0","ATUA5M7PLS8W3","img_art/ins/popularity/ins3ARatingpop.png","0","instructions","","","","","","","","","","","","","","","","","","","","","","","",""
"2959","","image-button-response_instructions","11","315887","0.0-11.0","ATUA5M7PLS8W3","img_art/ins/popularity/ins3ATextpop.png","0","instructions","","","","","","","","","","","","","","","","","","","","","","","",""
"5728","","image-button-response_instructions","12","321615","0.0-12.0","ATUA5M7PLS8W3","img_art/ins/popularity/ins3ALikespop.png","0","instructions","","","","","","","","","","","","","","","","","","","","","","","",""
"10326","","image-button-response_instructions","13","331943","0.0-13.0","ATUA5M7PLS8W3","img_art/ins/popularity/ins3KEEPpop.PNG","0","instructions","","","","","","","","","","","","","","","","","","","","","","","",""
"21776","","image-button-response_instructions","14","353719","0.0-14.0","ATUA5M7PLS8W3","img_art/ins/popularity/ins3_5RED.png","0","instructions","","","","","","","","","","","","","","","","","","","","","","","",""
"7943","","image-button-response_instructions","15","361663","0.0-15.0","ATUA5M7PLS8W3","img_art/ins/popularity/ins3KEEPpop.PNG","0","instructions","","","","","","","","","","","","","","","","","","","","","","","",""
"9431","","image-button-response_instructions","16","371095","0.0-16.0","ATUA5M7PLS8W3","img_art/ins/popularity/ins4KEEPpop.PNG","0","instructions","","","","","","","","","","","","","","","","","","","","","","","",""
"5599","","image-button-response_instructions","17","376695","0.0-17.0","ATUA5M7PLS8W3","img_art/ins/popularity/ins5KEEPpop.PNG","0","instructions","","","","","","","","","","","","","","","","","","","","","","","",""
"2438","","image-button-response_instructions","18","379135","0.0-18.0","ATUA5M7PLS8W3","","0","instructions","","","","","","","","","","","","","","","","","","","","","","","",""
"8877","","survey-text","19","388039","0.0-19.0-0.0","ATUA5M7PLS8W3","","","","{""Q0"":""but""}","","","","","","","","","","","","","","","","","","","","","","",""
"59760","","survey-text","20","447801","0.0-20.0-0.0","ATUA5M7PLS8W3","","","","{""Q0"":""I dont like it as much because I believe that the brown throws it off a bit.""}","","","","","","","","","","","","","","","","","","","","","","",""
"9379.699999809265","","image-slider-response","21","457184","0.0-21.0","ATUA5M7PLS8W3","","","","","-22","","","","","","","","","","","","","","","","","","","","","",""
"null","","image-button-response","22","462189","0.0-22.0","ATUA5M7PLS8W3","img_art/ins/1.jpg","null","","","","","","","","","","","","","","","","","","","","","","","","",""
"7242","","image-button-response","23","469433","0.0-23.0","ATUA5M7PLS8W3","img_art/ins/1.jpg","5","","","","","","","","","","","","","","","","","","","","","","","","",""
"4316","","image-button-response","24","473751","0.0-24.0-0.0","ATUA5M7PLS8W3","img_art/ins/1.jpg","1","","","","","","","","","","","","","","","","","","","","","","","","",""
"1918","","image-button-response","25","475672","0.0-25.0-0.0","ATUA5M7PLS8W3","img_art/ins/1.jpg","3","","","","","","","","","","","","","","","","","","","","","","","","",""
"null","","html-keyboard-response","26","477175","0.0-26.0","ATUA5M7PLS8W3","<p style=""font-size: 48px;"">+</p>","","","","","null","allTrialResponses","1500","1","-2","img_art/ins/1.jpg","-22","I dont like it as much because I believe that the brown throws it off a bit.","Adam,Alex,Ben,Carl,Daniel,Jack","Seems like doodles,-20,20,20","very creative work.,36,40,20","This color reminds me of poo,-46,60,20","very calming artwork,42,80,20","It looks like a murder scene.,-48,100,20","I like the sophisticated brushwork,40,120,20","Jack","I like the sophisticated brushwork,40,120,20","Alex","very creative work.,36,40,20","Carl","very calming artwork,42,80,20","0"
"91383","","survey-text","27","568566","0.0-27.0-0.0","ATUA5M7PLS8W3","","","","{""Q0"":""It looks 3d in a way to me and the colors seem to match everything well. ""}","","","","","","","","","","","","","","","","","","","","","","",""
"3223.7999999523163","","image-slider-response","28","571792","0.0-28.0","ATUA5M7PLS8W3","","","","","19","","","","","","","","","","","","","","","","","","","","","",""
"null","","image-button-response","29","576811","0.0-29.0","ATUA5M7PLS8W3","img_art/ins/2.jpg","null","","","","","","","","","","","","","","","","","","","","","","","","",""
"5809","","image-button-response","30","582623","0.0-30.0","ATUA5M7PLS8W3","img_art/ins/2.jpg","1","","","","","","","","","","","","","","","","","","","","","","","","",""
"3031","","image-button-response","31","585655","0.0-31.0-0.0","ATUA5M7PLS8W3","img_art/ins/2.jpg","0","","","","","","","","","","","","","","","","","","","","","","","","",""
"2814","","image-button-response","32","588471","0.0-32.0-0.0","ATUA5M7PLS8W3","img_art/ins/2.jpg","3","","","","","","","","","","","","","","","","","","","","","","","","",""
"null","","html-keyboard-response","33","589488","0.0-33.0","ATUA5M7PLS8W3","<p style=""font-size: 48px;"">+</p>","","","","","null","allTrialResponses","1000","1","-1","img_art/ins/2.jpg","19","It looks 3d in a way to me and the colors seem to match everything well. ","James,Alex,Kyle,Carl,John,Jack","looks too angry,-50,140,20","I like the blocks of color arrangements,30,40,20","Idk, it is just annoying,-32,180,20","I can feel the artist's passion in it,45,80,20","love the texture of paint,48,160,20","I would never be able to compose a sophisticated pallete like this,48,120,20","Alex","I like the blocks of color arrangements,30,40,20","James","looks too angry,-50,140,20","Carl","I can feel the artist's passion in it,45,80,20","0"
"28146","","survey-text","34","617639","0.0-34.0-0.0","ATUA5M7PLS8W3","","","","{""Q0"":""I love this art because there is something about the blue that seems calming. ""}","","","","","","","","","","","","","","","","","","","","","","",""
"5149.600000143051","","image-slider-response","35","622790","0.0-35.0","ATUA5M7PLS8W3","","","","","50","","","","","","","","","","","","","","","","","","","","","",""
"4695","","image-button-response","36","627796","0.0-36.0","ATUA5M7PLS8W3","img_art/ins/3.jpg","1","","","","","","","","","","","","","","","","","","","","","","","","",""
"737","","image-button-response","37","628534","0.0-37.0","ATUA5M7PLS8W3","img_art/ins/3.jpg","1","","","","","","","","","","","","","","","","","","","","","","","","",""
"2191","","image-button-response","38","630727","0.0-38.0-0.0","ATUA5M7PLS8W3","img_art/ins/3.jpg","2","","","","","","","","","","","","","","","","","","","","","","","","",""
"1558","","image-button-response","39","632287","0.0-39.0-0.0","ATUA5M7PLS8W3","img_art/ins/3.jpg","5","","","","","","","","","","","","","","","","","","","","","","","","",""
"null","","html-keyboard-response","40","633802","0.0-40.0","ATUA5M7PLS8W3","<p style=""font-size: 48px;"">+</p>","","","","","null","allTrialResponses","1500","1","0","img_art/ins/3.jpg","50","I love this art because there is something about the blue that seems calming. ","James,Alex,Mike,Carl,Ron,Sam","My worst nightmare,-42,140,20","calming blue is very nice,36,40,20","enjoy the different shades of blue,22,200,20","It's an alright work,15,80,20","It looks depressing,-26,220,20","I can feel a rainy day from this painting,18,240,20","Alex","calming blue is very nice,36,40,20","Mike","enjoy the different shades of blue,22,200,20","Sam","I can feel a rainy day from this painting,18,240,20","0"
"20169","","image-button-response_instructions","41","653974","0.0-41.0","ATUA5M7PLS8W3","","0","instructions","","","","","","","","","","","","","","","","","","","","","","","",""
"17238","","survey-likert","42","671215","0.0-42.0-0.0","ATUA5M7PLS8W3","","","","{""Q0"":"""",""Q1"":0,""Q2"":1}","","","","","","","","","","","","","","","","","","","","","","",""
"6919","","survey-text","43","678142","0.0-43.0-0.0","ATUA5M7PLS8W3","","","","{""Q0"":""rock""}","","","","","","","","","","","","","","","","","","","","","","",""
"55224","","survey-text","44","733368","0.0-44.0-0.0","ATUA5M7PLS8W3","","","","{""Q0"":""I like this because it looks jazzy to me. ""}","","","","","","","","","","","","","","","","","","","","","","",""
"4116.900000095367","","image-slider-response","45","737487","0.0-45.0","ATUA5M7PLS8W3","","","","","45","","","","","","","","","","","","","","","","","","","","","",""
"null","","image-button-response","46","742514","0.0-46.0","ATUA5M7PLS8W3","img_art/28.jpg","null","","","","","","","","","","","","","","","","","","","","","","","","",""
"12291","","image-button-response","47","754807","0.0-47.0","ATUA5M7PLS8W3","img_art/28.jpg","4","","","","","","","","","","","","","","","","","","","","","","","","",""
"1831","","image-button-response","48","756640","0.0-48.0-0.0","ATUA5M7PLS8W3","img_art/28.jpg","1","","","","","","","","","","","","","","","","","","","","","","","","",""
"1582","","image-button-response","49","758226","0.0-49.0-0.0","ATUA5M7PLS8W3","img_art/28.jpg","3","","","","","","","","","","","","","","","","","","","","","","","","",""
"null","","html-keyboard-response","50","759728","0.0-50.0","ATUA5M7PLS8W3","<p style=""font-size: 48px;"">+</p>","","","","","null","allTrialResponses","1500","1","1","img_art/28.jpg","45","I like this because it looks jazzy to me. ","Jason,Lucas,Paul,Steven,Cameron,Taylor","Not sure what way this picture is suppose to be oriented,-5,20,20","This painting is mysterious, it makes me curious.,5,380,20","The dark colors make it look dirty and the shapes make me uncomfortable,-50,300,20","It's a bike that was left abandoned by someone who doesnt care for it,1,160,20","dislike the colors. it looks like a bike, but misshapen wheels like it was wrecked.,-10,60,20","Bug meets bug in a dark alley.,-20,200,20","Cameron","dislike the colors. it looks like a bike, but misshapen wheels like it was wrecked.,-10,60,20","Lucas","This painting is mysterious, it makes me curious.,5,380,20","Steven","It's a bike that was left abandoned by someone who doesnt care for it,1,160,20","0"
"63317","","survey-text","51","823054","0.0-51.0-0.0","ATUA5M7PLS8W3","","","","{""Q0"":""It looks okay and I can tell its a street and house and trees. ""}","","","","","","","","","","","","","","","","","","","","","","",""
"3582.399999856949","","image-slider-response","52","826638","0.0-52.0","ATUA5M7PLS8W3","","","","","7","","","","","","","","","","","","","","","","","","","","","",""
"3390","","image-button-response","53","831641","0.0-53.0","ATUA5M7PLS8W3","img_art/26.jpg","0","","","","","","","","","","","","","","","","","","","","","","","","",""
"4795","","image-button-response","54","836439","0.0-54.0","ATUA5M7PLS8W3","img_art/26.jpg","0","","","","","","","","","","","","","","","","","","","","","","","","",""
"2518","","image-button-response","55","838959","0.0-55.0-0.0","ATUA5M7PLS8W3","img_art/26.jpg","3","","","","","","","","","","","","","","","","","","","","","","","","",""
"4309","","image-button-response","56","843271","0.0-56.0-0.0","ATUA5M7PLS8W3","img_art/26.jpg","4","","","","","","","","","","","","","","","","","","","","","","","","",""
"null","","html-keyboard-response","57","844779","0.0-57.0","ATUA5M7PLS8W3","<p style=""font-size: 48px;"">+</p>","","","","","null","allTrialResponses","1500","1","2","img_art/26.jpg","7","It looks okay and I can tell its a street and house and trees. ","Evan,Lucas,Sean,Steven,Cameron,Tanner","It feels simple and pretty,12,140,20","Nothing to say.,0,380,20","picture looks alright,1,40,20","This one is nicer, looks like a walk in a small, dreamy city,20,160,20","street scene is okay?,15,60,20","happy, park, childhood,9,180,20","Evan","It feels simple and pretty,12,140,20","Steven","This one is nicer, looks like a walk in a small, dreamy city,20,160,20","Cameron","street scene is okay?,15,60,20","0"
"21248","","survey-text","58","866031","0.0-58.0-0.0","ATUA5M7PLS8W3","","","","{""Q0"":""I dont like this because it seems kind of creepy. ""}","","","","","","","","","","","","","","","","","","","","","","",""
"4316.900000095367","","image-slider-response","59","870350","0.0-59.0","ATUA5M7PLS8W3","","","","","-44","","","","","","","","","","","","","","","","","","","","","",""
"3592","","image-button-response","60","875352","0.0-60.0","ATUA5M7PLS8W3","img_art/16.jpg","0","","","","","","","","","","","","","","","","","","","","","","","","",""
"5485","","image-button-response","61","880838","0.0-61.0","ATUA5M7PLS8W3","img_art/16.jpg","0","","","","","","","","","","","","","","","","","","","","","","","","",""
"5031","","image-button-response","62","885872","0.0-62.0-0.0","ATUA5M7PLS8W3","img_art/16.jpg","5","","","","","","","","","","","","","","","","","","","","","","","","",""
"3460","","image-button-response","63","889335","0.0-63.0-0.0","ATUA5M7PLS8W3","img_art/16.jpg","4","","","","","","","","","","","","","","","","","","","","","","","","",""
"null","","html-keyboard-response","64","890837","0.0-64.0","ATUA5M7PLS8W3","<p style=""font-size: 48px;"">+</p>","","","","","null","allTrialResponses","1500","1","3","img_art/16.jpg","-44","I dont like this because it seems kind of creepy. ","Evan,Juan,Stephen,Steven,Cameron,Alexis","I do not like this dark and twisted portrayal of childhood,-42,140,20","This is too bizarre.,-39,260,20","Cute but there's a lot going on.,7,140,20","Not interested at all,-15,160,20","Don't like teddy bears in art. I could draw that house.,-20,60,20","It looks very generic, like items were pasted onto the background,-38,140,20","Evan","I do not like this dark and twisted portrayal of childhood,-42,140,20","Alexis","It looks very generic, like items were pasted onto the background,-38,140,20","Cameron","Don't like teddy bears in art. I could draw that house.,-20,60,20","0"
"44031","","survey-text","65","934870","0.0-65.0-0.0","ATUA5M7PLS8W3","","","","{""Q0"":""I love this art because it is calming since I'm a sucker for a waterfall.""}","","","","","","","","","","","","","","","","","","","","","","",""
"3847.199999809265","","image-slider-response","66","938719","0.0-66.0","ATUA5M7PLS8W3","","","","","48","","","","","","","","","","","","","","","","","","","","","",""
"3046","","image-button-response","67","943724","0.0-67.0","ATUA5M7PLS8W3","img_art/24.jpg","1","","","","","","","","","","","","","","","","","","","","","","","","",""
"672","","image-button-response","68","944398","0.0-68.0","ATUA5M7PLS8W3","img_art/24.jpg","2","","","","","","","","","","","","","","","","","","","","","","","","",""
"1701","","image-button-response","69","946102","0.0-69.0-0.0","ATUA5M7PLS8W3","img_art/24.jpg","1","","","","","","","","","","","","","","","","","","","","","","","","",""
"3123","","image-button-response","70","949227","0.0-70.0-0.0","ATUA5M7PLS8W3","img_art/24.jpg","3","","","","","","","","","","","","","","","","","","","","","","","","",""
"null","","html-keyboard-response","71","949730","0.0-71.0","ATUA5M7PLS8W3","<p style=""font-size: 48px;"">+</p>","","","","","null","allTrialResponses","500","1","4","img_art/24.jpg","48","I love this art because it is calming since I'm a sucker for a waterfall.","Evan,Alejandro,Jeffrey,Jack,Cameron,Alexis","It feels very serene,19,140,20","I don't like this painting because of its blottedness. It lacks conviction, direction and purpose.,-31,80,20","Very refreshing and vigorous,19,40,20","colors are a bit cramped together. really unique take on a waterfall though.,32,320,20","Mountain stream pineapple texture?,30,60,20","I love how bold and vibrant the colors are,40,140,20","Jeffrey","Very refreshing and vigorous,19,40,20","Alejandro","I don't like this painting because of its blottedness. It lacks conviction, direction and purpose.,-31,80,20","Jack","colors are a bit cramped together. really unique take on a waterfall though.,32,320,20","0"
"45649","","survey-text","72","995382","0.0-72.0-0.0","ATUA5M7PLS8W3","","","","{""Q0"":""I really love this art because it is reminding me of a syfy film or something.""}","","","","","","","","","","","","","","","","","","","","","","",""
"3846.100000143051","","image-slider-response","73","999230","0.0-73.0","ATUA5M7PLS8W3","","","","","44","","","","","","","","","","","","","","","","","","","","","",""
"2127","","image-button-response","74","1004232","0.0-74.0","ATUA5M7PLS8W3","img_art/13.jpg","2","","","","","","","","","","","","","","","","","","","","","","","","",""
"1236","","image-button-response","75","1005470","0.0-75.0","ATUA5M7PLS8W3","img_art/13.jpg","2","","","","","","","","","","","","","","","","","","","","","","","","",""
"3839","","image-button-response","76","1009311","0.0-76.0-0.0","ATUA5M7PLS8W3","img_art/13.jpg","1","","","","","","","","","","","","","","","","","","","","","","","","",""
"1334","","image-button-response","77","1010647","0.0-77.0-0.0","ATUA5M7PLS8W3","img_art/13.jpg","4","","","","","","","","","","","","","","","","","","","","","","","","",""
"null","","html-keyboard-response","78","1012154","0.0-78.0","ATUA5M7PLS8W3","<p style=""font-size: 48px;"">+</p>","","","","","null","allTrialResponses","1500","1","5","img_art/13.jpg","44","I really love this art because it is reminding me of a syfy film or something.","Dakota,Alejandro,Jeffrey,Jack,John,Brett","water on my shower curtain - I feel refreshed, renewed,9,280,20","Reminiscent of Jackson Pollock and gives me a feeling of chaotic satisfaction,50,80,20","Messy but organised, helps me to relax and observe,8,40,20","exciting & chaotic. love the colors.,50,320,20","Pretty and it reminds me of rain droplets running down a window on a rainy day.,40,120,20","Very abstract and soothing,40,360,20","Jeffrey","Messy but organised, helps me to relax and observe,8,40,20","Alejandro","Reminiscent of Jackson Pollock and gives me a feeling of chaotic satisfaction,50,80,20","John","Pretty and it reminds me of rain droplets running down a window on a rainy day.,40,120,20","0"
"6829","","survey-text","79","1018991","0.0-79.0-0.0","ATUA5M7PLS8W3","","","","{""Q0"":""sky""}","","","","","","","","","","","","","","","","","","","","","","",""
"99214","","survey-text","80","1118207","0.0-80.0-0.0","ATUA5M7PLS8W3","","","","{""Q0"":""Its okay but kind of weird for me. ""}","","","","","","","","","","","","","","","","","","","","","","",""
"3805.5999999046326","","image-slider-response","81","1122014","0.0-81.0","ATUA5M7PLS8W3","","","","","-38","","","","","","","","","","","","","","","","","","","","","",""
"3654","","image-button-response","82","1127025","0.0-82.0","ATUA5M7PLS8W3","img_art/6.jpg","1","","","","","","","","","","","","","","","","","","","","","","","","",""
"1424","","image-button-response","83","1128454","0.0-83.0","ATUA5M7PLS8W3","img_art/6.jpg","4","","","","","","","","","","","","","","","","","","","","","","","","",""
"913","","image-button-response","84","1129369","0.0-84.0-0.0","ATUA5M7PLS8W3","img_art/6.jpg","1","","","","","","","","","","","","","","","","","","","","","","","","",""
"2571","","image-button-response","85","1131942","0.0-85.0-0.0","ATUA5M7PLS8W3","img_art/6.jpg","0","","","","","","","","","","","","","","","","","","","","","","","","",""
"null","","html-keyboard-response","86","1132444","0.0-86.0","ATUA5M7PLS8W3","<p style=""font-size: 48px;"">+</p>","","","","","null","allTrialResponses","500","1","6","img_art/6.jpg","-38","Its okay but kind of weird for me. ","Miguel,Alejandro,Jeffrey,Matthew,John,Jared","Bird? It's a bird.,23,160,20","Gives me a feeling of solitude and nothingness,11,80,20","positive because of bright colours and a bird,20,40,20","A lot of people will lvoe this, I do not.,1,120,20","It makes me stop and think about what the artist is trying to say.It creates a feeling of solitude and tranqulity,30,120,20","simplistic. i love orange and green and i love the subject,50,400,20","John","It makes me stop and think about what the artist is trying to say.It creates a feeling of solitude and tranqulity,30,120,20","Alejandro","Gives me a feeling of solitude and nothingness,11,80,20","Miguel","Bird? It's a bird.,23,160,20","0"
"54047","","survey-text","87","1186494","0.0-87.0-0.0","ATUA5M7PLS8W3","","","","{""Q0"":""This just looks like a roller coaster to me for some reason and I like it. ""}","","","","","","","","","","","","","","","","","","","","","","",""
"3737.5999999046326","","image-slider-response","88","1190234","0.0-88.0","ATUA5M7PLS8W3","","","","","32","","","","","","","","","","","","","","","","","","","","","",""
"1554","","image-button-response","89","1195238","0.0-89.0","ATUA5M7PLS8W3","img_art/3.jpg","1","","","","","","","","","","","","","","","","","","","","","","","","",""
"1286","","image-button-response","90","1196528","0.0-90.0","ATUA5M7PLS8W3","img_art/3.jpg","1","","","","","","","","","","","","","","","","","","","","","","","","",""
"1604","","image-button-response","91","1198134","0.0-91.0-0.0","ATUA5M7PLS8W3","img_art/3.jpg","4","","","","","","","","","","","","","","","","","","","","","","","","",""
"1622","","image-button-response","92","1199758","0.0-92.0-0.0","ATUA5M7PLS8W3","img_art/3.jpg","5","","","","","","","","","","","","","","","","","","","","","","","","",""
"null","","html-keyboard-response","93","1200260","0.0-93.0","ATUA5M7PLS8W3","<p style=""font-size: 48px;"">+</p>","","","","","null","allTrialResponses","500","1","7","img_art/3.jpg","32","This just looks like a roller coaster to me for some reason and I like it. ","Miguel,Alejandro,Isaac,Trevor,John,Hunter","Unfocused and rushed.,-28,160,20","I like the abstract flowing lines. It lacks hard rigid marks and flow nicely into a piece of calamity.,32,80,20","It looks like scribbles.,-40,280,20","looks more classic but i'm not a fan of the colors,7,280,20","Looks like someone spilled ketchup and forgot to clean it up,-30,120,20","strong color, interesting negative shapes,21,240,20","Alejandro","I like the abstract flowing lines. It lacks hard rigid marks and flow nicely into a piece of calamity.,32,80,20","John","Looks like someone spilled ketchup and forgot to clean it up,-30,120,20","Hunter","strong color, interesting negative shapes,21,240,20","0"
"17188","","survey-text","94","1217454","0.0-94.0-0.0","ATUA5M7PLS8W3","","","","{""Q0"":""I like the design on how the lines are drawn. ""}","","","","","","","","","","","","","","","","","","","","","","",""
"3638","","image-slider-response","95","1221094","0.0-95.0","ATUA5M7PLS8W3","","","","","30","","","","","","","","","","","","","","","","","","","","","",""
"1638","","image-button-response","96","1226108","0.0-96.0","ATUA5M7PLS8W3","img_art/30.jpg","2","","","","","","","","","","","","","","","","","","","","","","","","",""
"3263","","image-button-response","97","1229374","0.0-97.0","ATUA5M7PLS8W3","img_art/30.jpg","2","","","","","","","","","","","","","","","","","","","","","","","","",""
"375","","image-button-response","98","1229750","0.0-98.0-0.0","ATUA5M7PLS8W3","img_art/30.jpg","1","","","","","","","","","","","","","","","","","","","","","","","","",""
"1374","","image-button-response","99","1231126","0.0-99.0-0.0","ATUA5M7PLS8W3","img_art/30.jpg","3","","","","","","","","","","","","","","","","","","","","","","","","",""
"null","","html-keyboard-response","100","1232136","0.0-100.0","ATUA5M7PLS8W3","<p style=""font-size: 48px;"">+</p>","","","","","null","allTrialResponses","1000","1","8","img_art/30.jpg","30","I like the design on how the lines are drawn. ","Victor,Alejandro,Tyler,Timothy,John,Hunter","I just don't see the point of this piece,-11,340,20","An interesting design but don't like the colors. I value the time and effort put into it, but not a huge fan.,10,80,20","Interesting brushstroke work, but not particularly memorable.,21,320,20","It's pleasent but otherwise unprovoking,8,240,20","ugly nasty colors,-10,120,20","muddy, feels unintentional,-50,240,20","Tyler","Interesting brushstroke work, but not particularly memorable.,21,320,20","Alejandro","An interesting design but don't like the colors. I value the time and effort put into it, but not a huge fan.,10,80,20","Timothy","It's pleasent but otherwise unprovoking,8,240,20","0"
"38467","","survey-text","101","1270614","0.0-101.0-0.0","ATUA5M7PLS8W3","","","","{""Q0"":""I like this art because how the tree was made to look. ""}","","","","","","","","","","","","","","","","","","","","","","",""
"3294","","image-slider-response","102","1273910","0.0-102.0","ATUA5M7PLS8W3","","","","","39","","","","","","","","","","","","","","","","","","","","","",""
"1406","","image-button-response","103","1278928","0.0-103.0","ATUA5M7PLS8W3","img_art/14.jpg","1","","","","","","","","","","","","","","","","","","","","","","","","",""
"883","","image-button-response","104","1279813","0.0-104.0","ATUA5M7PLS8W3","img_art/14.jpg","1","","","","","","","","","","","","","","","","","","","","","","","","",""
"1103","","image-button-response","105","1280918","0.0-105.0-0.0","ATUA5M7PLS8W3","img_art/14.jpg","3","","","","","","","","","","","","","","","","","","","","","","","","",""
"935","","image-button-response","106","1281854","0.0-106.0-0.0","ATUA5M7PLS8W3","img_art/14.jpg","5","","","","","","","","","","","","","","","","","","","","","","","","",""
"null","","html-keyboard-response","107","1283364","0.0-107.0","ATUA5M7PLS8W3","<p style=""font-size: 48px;"">+</p>","","","","","null","allTrialResponses","1500","1","9","img_art/14.jpg","39","I like this art because how the tree was made to look. ","Bryce,Alejandro,Tyler,Timothy,Ryan,Robert","The red looks like blood and im not a huge fan,15,20,20","It looks like a tree but the bleeding water colors lack borders and makes it hard to appreciate the message.,-41,80,20","No strong feelings either direction.,-4,320,20","Something about the cahotic imagery makes me uncomfortable,-15,240,20","Gorgeous use of water color,50,380,20","Late Winter when things are just starting to bloom.,21,360,20","Alejandro","It looks like a tree but the bleeding water colors lack borders and makes it hard to appreciate the message.,-41,80,20","Timothy","Something about the cahotic imagery makes me uncomfortable,-15,240,20","Robert","Late Winter when things are just starting to bloom.,21,360,20","0"
"24918","","survey-text","108","1308286","0.0-108.0-0.0","ATUA5M7PLS8W3","","","","{""Q0"":""Seems very chaotic but most art is. ""}","","","","","","","","","","","","","","","","","","","","","","",""
"4158.599999904633","","image-slider-response","109","1312446","0.0-109.0","ATUA5M7PLS8W3","","","","","-15","","","","","","","","","","","","","","","","","","","","","",""
"1509","","image-button-response","110","1317450","0.0-110.0","ATUA5M7PLS8W3","img_art/2.jpg","1","","","","","","","","","","","","","","","","","","","","","","","","",""
"2041","","image-button-response","111","1319494","0.0-111.0","ATUA5M7PLS8W3","img_art/2.jpg","1","","","","","","","","","","","","","","","","","","","","","","","","",""
"1753","","image-button-response","112","1321248","0.0-112.0-0.0","ATUA5M7PLS8W3","img_art/2.jpg","4","","","","","","","","","","","","","","","","","","","","","","","","",""
"612","","image-button-response","113","1321862","0.0-113.0-0.0","ATUA5M7PLS8W3","img_art/2.jpg","5","","","","","","","","","","","","","","","","","","","","","","","","",""
"null","","html-keyboard-response","114","1323365","0.0-114.0","ATUA5M7PLS8W3","<p style=""font-size: 48px;"">+</p>","","","","","null","allTrialResponses","1500","1","10","img_art/2.jpg","-15","Seems very chaotic but most art is. ","Gregory,Alejandro,Jesse,Timothy,Brian,Robert","Awful color coordination and design,-35,220,20","Looks contrived and like someone tried to hard to make it abstract,-31,80,20","Looks childish and i dont like the texture,-25,80,20","The contrasting colors are a bit harsh,-10,240,20","I like how it looks like a cute smiling face,43,380,20","The colors are what I like. It looks like a smiling face too.,32,360,20","Alejandro","Looks contrived and like someone tried to hard to make it abstract,-31,80,20","Brian","I like how it looks like a cute smiling face,43,380,20","Robert","The colors are what I like. It looks like a smiling face too.,32,360,20","0"
"4923","","survey-text","115","1328301","0.0-115.0-0.0","ATUA5M7PLS8W3","","","","{""Q0"":""our""}","","","","","","","","","","","","","","","","","","","","","","",""
"437230","","survey-text","116","1765533","0.0-116.0-0.0","ATUA5M7PLS8W3","","","","{""Q0"":""I kind of like how it look's like a trash bag""}","","","","","","","","","","","","","","","","","","","","","","",""
"3183.600000143051","","image-slider-response","117","1768719","0.0-117.0","ATUA5M7PLS8W3","","","","","17","","","","","","","","","","","","","","","","","","","","","",""
"null","","image-button-response","118","1773722","0.0-118.0","ATUA5M7PLS8W3","img_art/5.jpg","null","","","","","","","","","","","","","","","","","","","","","","","","",""
"1361","","image-button-response","119","1775086","0.0-119.0","ATUA5M7PLS8W3","img_art/5.jpg","1","","","","","","","","","","","","","","","","","","","","","","","","",""
"1573","","image-button-response","120","1776661","0.0-120.0-0.0","ATUA5M7PLS8W3","img_art/5.jpg","4","","","","","","","","","","","","","","","","","","","","","","","","",""
"471","","image-button-response","121","1777133","0.0-121.0-0.0","ATUA5M7PLS8W3","img_art/5.jpg","3","","","","","","","","","","","","","","","","","","","","","","","","",""
"null","","html-keyboard-response","122","1778135","0.0-122.0","ATUA5M7PLS8W3","<p style=""font-size: 48px;"">+</p>","","","","","null","allTrialResponses","1000","1","11","img_art/5.jpg","17","I kind of like how it look's like a trash bag","Chase,Alejandro,Brandon,Travis,Brian,Robert","Seems very basic and uninteresting.,-15,120,20","Confused as to what the artist is attempting to do.,-50,80,20","Kindergarten art. I really don't like this style.,-50,320,20","This was awful and it looked like someone took minimul effort with it... no time at all.,-49,260,20","I like this one but wish it had more context around it,18,380,20","This did not do a thing for me.,-50,360,20","Alejandro","Confused as to what the artist is attempting to do.,-50,80,20","Brian","I like this one but wish it had more context around it,18,380,20","Travis","This was awful and it looked like someone took minimul effort with it... no time at all.,-49,260,20","0"
"95441","","survey-text","123","1873596","0.0-123.0-0.0","ATUA5M7PLS8W3","","","","{""Q0"":""I love this art because it shows a party mood to me. ""}","","","","","","","","","","","","","","","","","","","","","","",""
"2272.5999999046326","","image-slider-response","124","1875870","0.0-124.0","ATUA5M7PLS8W3","","","","","33","","","","","","","","","","","","","","","","","","","","","",""
"null","","image-button-response","125","1880872","0.0-125.0","ATUA5M7PLS8W3","img_art/19.jpg","null","","","","","","","","","","","","","","","","","","","","","","","","",""
"860","","image-button-response","126","1881733","0.0-126.0","ATUA5M7PLS8W3","img_art/19.jpg","4","","","","","","","","","","","","","","","","","","","","","","","","",""
"1782","","image-button-response","127","1883517","0.0-127.0-0.0","ATUA5M7PLS8W3","img_art/19.jpg","3","","","","","","","","","","","","","","","","","","","","","","","","",""
"1014","","image-button-response","128","1884533","0.0-128.0-0.0","ATUA5M7PLS8W3","img_art/19.jpg","1","","","","","","","","","","","","","","","","","","","","","","","","",""
"null","","html-keyboard-response","129","1886034","0.0-129.0","ATUA5M7PLS8W3","<p style=""font-size: 48px;"">+</p>","","","","","null","allTrialResponses","1500","1","12","img_art/19.jpg","33","I love this art because it shows a party mood to me. ","Daniel,Alejandro,Alex,Travis,Brian,Joseph","Simple, scratchy lack of negative space.,-10,320,20","It is an interesting piece but there are too many muted tones,22,80,20","I like the water but again, the small lines with no detail are irritating,3,100,20","Nuetral...can't think of anything to say,4,260,20","I like this style but don't really like the specific setting of the landscape,-7,380,20","Too messy and busy. Too much going on there for me.,-12,220,20","Brian","I like this style but don't really like the specific setting of the landscape,-7,380,20","Travis","Nuetral...can't think of anything to say,4,260,20","Alejandro","It is an interesting piece but there are too many muted tones,22,80,20","0"
"116840","","survey-text","130","2002876","0.0-130.0-0.0","ATUA5M7PLS8W3","","","","{""Q0"":""I like the way the colors match well""}","","","","","","","","","","","","","","","","","","","","","","",""
"2493.899999856949","","image-slider-response","131","2005372","0.0-131.0","ATUA5M7PLS8W3","","","","","25","","","","","","","","","","","","","","","","","","","","","",""
"null","","image-button-response","132","2011025","0.0-132.0","ATUA5M7PLS8W3","img_art/15.jpg","null","","","","","","","","","","","","","","","","","","","","","","","","",""
"3513","","image-button-response","133","2014540","0.0-133.0","ATUA5M7PLS8W3","img_art/15.jpg","2","","","","","","","","","","","","","","","","","","","","","","","","",""
"646","","image-button-response","134","2015188","0.0-134.0-0.0","ATUA5M7PLS8W3","img_art/15.jpg","1","","","","","","","","","","","","","","","","","","","","","","","","",""
"414","","image-button-response","135","2015604","0.0-135.0-0.0","ATUA5M7PLS8W3","img_art/15.jpg","0","","","","","","","","","","","","","","","","","","","","","","","","",""
"null","","html-keyboard-response","136","2016109","0.0-136.0","ATUA5M7PLS8W3","<p style=""font-size: 48px;"">+</p>","","","","","null","allTrialResponses","500","1","13","img_art/15.jpg","25","I like the way the colors match well","Seth,Alejandro,Nathaniel,Travis,Brian,Dylan","There should be more space between the black marks. The black comes off harsh and the blue between the trees can barely be seen.,-21,60,20","The blotted black spots create a nice contrast between the brush strokes within the center and sides. I like it.,41,80,20","This is passable, but personally it just has nothing I'd like to see.,-14,220,20","Hate it...black dots.,-47,260,20","This is simply too ""old-school"",-27,380,20","This is sort of ugly, but I do like the design.,10,40,20","Nathaniel","This is passable, but personally it just has nothing I'd like to see.,-14,220,20","Alejandro","The blotted black spots create a nice contrast between the brush strokes within the center and sides. I like it.,41,80,20","Seth","There should be more space between the black marks. The black comes off harsh and the blue between the trees can barely be seen.,-21,60,20","0"
"25681","","survey-text","137","2041796","0.0-137.0-0.0","ATUA5M7PLS8W3","","","","{""Q0"":""This looks like a nice modern painting. ""}","","","","","","","","","","","","","","","","","","","","","","",""
"2806.899999856949","","image-slider-response","138","2044604","0.0-138.0","ATUA5M7PLS8W3","","","","","45","","","","","","","","","","","","","","","","","","","","","",""
"4983","","image-button-response","139","2049607","0.0-139.0","ATUA5M7PLS8W3","img_art/22.jpg","5","","","","","","","","","","","","","","","","","","","","","","","","",""
"515","","image-button-response","140","2050124","0.0-140.0","ATUA5M7PLS8W3","img_art/22.jpg","5","","","","","","","","","","","","","","","","","","","","","","","","",""
"2575","","image-button-response","141","2052701","0.0-141.0-0.0","ATUA5M7PLS8W3","img_art/22.jpg","1","","","","","","","","","","","","","","","","","","","","","","","","",""
"557","","image-button-response","142","2053260","0.0-142.0-0.0","ATUA5M7PLS8W3","img_art/22.jpg","0","","","","","","","","","","","","","","","","","","","","","","","","",""
"null","","html-keyboard-response","143","2054771","0.0-143.0","ATUA5M7PLS8W3","<p style=""font-size: 48px;"">+</p>","","","","","null","allTrialResponses","1500","1","14","img_art/22.jpg","45","This looks like a nice modern painting. ","Seth,Alejandro,Nathaniel,Jeremy,Derek,Mitchell","I think the colors are beautiful they remind me of a sunset.,13,60,20","Beautiful use of chalk or pastels. Love the abstract nature.,35,80,20","Looks like a giant blob,-45,220,20","Happy. I like to colors,33,60,20","Really pretty. Love the colors.,30,360,20","Scary monsters lurking causing confusion.,-40,180,20","Mitchell","Scary monsters lurking causing confusion.,-40,180,20","Alejandro","Beautiful use of chalk or pastels. Love the abstract nature.,35,80,20","Seth","I think the colors are beautiful they remind me of a sunset.,13,60,20","0"
"467156","","survey-text","144","2521932","0.0-144.0-0.0","ATUA5M7PLS8W3","","","","{""Q0"":""The colors blending together is nice ""}","","","","","","","","","","","","","","","","","","","","","","",""
"3164.7999999523163","","image-slider-response","145","2525099","0.0-145.0","ATUA5M7PLS8W3","","","","","50","","","","","","","","","","","","","","","","","","","","","",""
"null","","image-button-response","146","2530106","0.0-146.0","ATUA5M7PLS8W3","img_art/1.jpg","null","","","","","","","","","","","","","","","","","","","","","","","","",""
"488","","image-button-response","147","2530595","0.0-147.0","ATUA5M7PLS8W3","img_art/1.jpg","0","","","","","","","","","","","","","","","","","","","","","","","","",""
"574","","image-button-response","148","2531171","0.0-148.0-0.0","ATUA5M7PLS8W3","img_art/1.jpg","1","","","","","","","","","","","","","","","","","","","","","","","","",""
"480","","image-button-response","149","2531653","0.0-149.0-0.0","ATUA5M7PLS8W3","img_art/1.jpg","0","","","","","","","","","","","","","","","","","","","","","","","","",""
"1504","","image-button-response","150","2538044","0.0-149.1-0.1","ATUA5M7PLS8W3","img_art/1.jpg","2","","","","","","","","","","","","","","","","","","","","","","","","",""
"null","","html-keyboard-response","151","2539046","0.0-150.0","ATUA5M7PLS8W3","<p style=""font-size: 48px;"">+</p>","","","","","null","allTrialResponses","1000","1","15","img_art/1.jpg","50","The colors blending together is nice ","Seth,Alejandro,Angel,Scott,Jesus,Mitchell","Might be a person rowing their boat across the lake. Not sure if the background is trees or not.,12,60,20","Interesting color scheme but to bled to me,11,80,20","For some reason this makes me want to go ice skating. It's whimsical and free but also very smooth.,20,180,20","good colors and contrast,31,20,20","I like the simple aspect to the design,21,100,20","confused,animal like brain fog,0,180,20","Seth","Might be a person rowing their boat across the lake. Not sure if the background is trees or not.,12,60,20","Alejandro","Interesting color scheme but to bled to me,11,80,20","Angel","For some reason this makes me want to go ice skating. It's whimsical and free but also very smooth.,20,180,20","2"
"5571","","survey-text","152","2544635","0.0-151.0-0.0","ATUA5M7PLS8W3","","","","{""Q0"":""course""}","","","","","","","","","","","","","","","","","","","","","","",""
"18845","","survey-text","153","2563482","0.0-152.0-0.0","ATUA5M7PLS8W3","","","","{""Q0"":""This art is really sophisticated ""}","","","","","","","","","","","","","","","","","","","","","","",""
"2702.699999809265","","image-slider-response","154","2566186","0.0-153.0","ATUA5M7PLS8W3","","","","","50","","","","","","","","","","","","","","","","","","","","","",""
"null","","image-button-response","155","2571189","0.0-154.0","ATUA5M7PLS8W3","img_art/17.jpg","null","","","","","","","","","","","","","","","","","","","","","","","","",""
"1869","","image-button-response","156","2573059","0.0-155.0","ATUA5M7PLS8W3","img_art/17.jpg","2","","","","","","","","","","","","","","","","","","","","","","","","",""
"422","","image-button-response","157","2573483","0.0-156.0-0.0","ATUA5M7PLS8W3","img_art/17.jpg","1","","","","","","","","","","","","","","","","","","","","","","","","",""
"373","","image-button-response","158","2573858","0.0-157.0-0.0","ATUA5M7PLS8W3","img_art/17.jpg","0","","","","","","","","","","","","","","","","","","","","","","","","",""
"null","","html-keyboard-response","159","2575363","0.0-158.0","ATUA5M7PLS8W3","<p style=""font-size: 48px;"">+</p>","","","","","null","allTrialResponses","1500","1","16","img_art/17.jpg","50","This art is really sophisticated ","Seth,Alejandro,Angel,Cody,Nathan,Dalton","I really enjoyed this piece, it's a play on bringing the outside indoors.,32,60,20","Embodies beauty and complexity and in simplicity as well,50,80,20","Reminds me of the modern art museum in Rome. I didn't ""get"" many pieces, but had a positive cultural experience overall.,20,180,20","Love the colors and the movement,46,180,20","It's alright, nothing I particularly like but it's just fine,-10,200,20","Beautiful simply beautiful. i would love this,,50,300,20","Angel","Reminds me of the modern art museum in Rome. I didn't ""get"" many pieces, but had a positive cultural experience overall.,20,180,20","Alejandro","Embodies beauty and complexity and in simplicity as well,50,80,20","Seth","I really enjoyed this piece, it's a play on bringing the outside indoors.,32,60,20","2"
"14942","","survey-text","160","2590308","0.0-159.0-0.0","ATUA5M7PLS8W3","","","","{""Q0"":""Looks creepy but nice colors together. ""}","","","","","","","","","","","","","","","","","","","","","","",""
"2525.0999999046326","","image-slider-response","161","2592834","0.0-160.0","ATUA5M7PLS8W3","","","","","12","","","","","","","","","","","","","","","","","","","","","",""
"null","","image-button-response","162","2597837","0.0-161.0","ATUA5M7PLS8W3","img_art/20.jpg","null","","","","","","","","","","","","","","","","","","","","","","","","",""
"643","","image-button-response","163","2598483","0.0-162.0","ATUA5M7PLS8W3","img_art/20.jpg","1","","","","","","","","","","","","","","","","","","","","","","","","",""
"686","","image-button-response","164","2599171","0.0-163.0-0.0","ATUA5M7PLS8W3","img_art/20.jpg","4","","","","","","","","","","","","","","","","","","","","","","","","",""
"360","","image-button-response","165","2599533","0.0-164.0-0.0","ATUA5M7PLS8W3","img_art/20.jpg","5","","","","","","","","","","","","","","","","","","","","","","","","",""
"null","","html-keyboard-response","166","2601043","0.0-165.0","ATUA5M7PLS8W3","<p style=""font-size: 48px;"">+</p>","","","","","null","allTrialResponses","1500","1","17","img_art/20.jpg","12","Looks creepy but nice colors together. ","Seth,Alejandro,Angel,Luis,Jorge,Bradley","I'm not sure why this reminds me of surrealism. It might be the colors used.,16,60,20","The pulling and sagging nature is very beautiful.,30,80,20","This looks like a ruin of what was once a thriving city.,-9,180,20","I love the way it expresses dark nature and uncontrolled situations.,44,400,20","Curious about what lies here,10,180,20","A truck rolled over?  I do like the pictures and the technique though.,25,300,20","Alejandro","The pulling and sagging nature is very beautiful.,30,80,20","Jorge","Curious about what lies here,10,180,20","Bradley","A truck rolled over?  I do like the pictures and the technique though.,25,300,20","2"
"11435","","survey-text","167","2612483","0.0-166.0-0.0","ATUA5M7PLS8W3","","","","{""Q0"":""Looks weird but I like it ""}","","","","","","","","","","","","","","","","","","","","","","",""
"2246.2999999523163","","image-slider-response","168","2614731","0.0-167.0","ATUA5M7PLS8W3","","","","","27","","","","","","","","","","","","","","","","","","","","","",""
"null","","image-button-response","169","2619739","0.0-168.0","ATUA5M7PLS8W3","img_art/29.jpg","null","","","","","","","","","","","","","","","","","","","","","","","","",""
"1309","","image-button-response","170","2621050","0.0-169.0","ATUA5M7PLS8W3","img_art/29.jpg","1","","","","","","","","","","","","","","","","","","","","","","","","",""
"304","","image-button-response","171","2621356","0.0-170.0-0.0","ATUA5M7PLS8W3","img_art/29.jpg","0","","","","","","","","","","","","","","","","","","","","","","","","",""
"509","","image-button-response","172","2621867","0.0-171.0-0.0","ATUA5M7PLS8W3","img_art/29.jpg","2","","","","","","","","","","","","","","","","","","","","","","","","",""
"null","","html-keyboard-response","173","2623376","0.0-172.0","ATUA5M7PLS8W3","<p style=""font-size: 48px;"">+</p>","","","","","null","allTrialResponses","1500","1","18","img_art/29.jpg","27","Looks weird but I like it ","Adrian,Alejandro,Mark,Grant,Jorge,Bradley","Again, ugly colors and I'm not a fan of abstract. This looks like the view into a garbage dump.,-50,60,20","Reminiscent of Jackson Pollock with a hint of abstract structure with the bordering.,32,80,20","Bottomless pit and prison. Feels like its saying time is precious.,11,80,20","I can relate to the frustration this evokes.,20,200,20","makes me feel busy and unorganized,4,180,20","It's creative. It's just not my thing.,-32,300,20","Alejandro","Reminiscent of Jackson Pollock with a hint of abstract structure with the bordering.,32,80,20","Adrian","Again, ugly colors and I'm not a fan of abstract. This looks like the view into a garbage dump.,-50,60,20","Mark","Bottomless pit and prison. Feels like its saying time is precious.,11,80,20","2"
"12132","","survey-text","174","2635515","0.0-173.0-0.0","ATUA5M7PLS8W3","","","","{""Q0"":""Looks a mess""}","","","","","","","","","","","","","","","","","","","","","","",""
"2054.5999999046326","","image-slider-response","175","2637571","0.0-174.0","ATUA5M7PLS8W3","","","","","-20","","","","","","","","","","","","","","","","","","","","","",""
"null","","image-button-response","176","2642577","0.0-175.0","ATUA5M7PLS8W3","img_art/27.jpg","null","","","","","","","","","","","","","","","","","","","","","","","","",""
"2000","","image-button-response","177","2644580","0.0-176.0","ATUA5M7PLS8W3","img_art/27.jpg","4","","","","","","","","","","","","","","","","","","","","","","","","",""
"1046","","image-button-response","178","2645628","0.0-177.0-0.0","ATUA5M7PLS8W3","img_art/27.jpg","1","","","","","","","","","","","","","","","","","","","","","","","","",""
"397","","image-button-response","179","2646027","0.0-178.0-0.0","ATUA5M7PLS8W3","img_art/27.jpg","0","","","","","","","","","","","","","","","","","","","","","","","","",""
"null","","html-keyboard-response","180","2647530","0.0-179.0","ATUA5M7PLS8W3","<p style=""font-size: 48px;"">+</p>","","","","","null","allTrialResponses","1500","1","19","img_art/27.jpg","-20","Looks a mess","Adrian,Alejandro,Mark,Devin,Christian,Joshua","Looks like my niece's doodles.,-50,60,20","Muddied and directionless. Like someone dragged a brush across the paper for the sake of doing something.,-50,80,20","I see a cathedral through the woods.,12,80,20","Looks like the green bits were added on later,-1,380,20","don't understand, the green induces confusion,1,140,20","Reminds me of something I'd see in a gold frame from the Eighties.,-9,240,20","Christian","don't understand, the green induces confusion,1,140,20","Alejandro","Muddied and directionless. Like someone dragged a brush across the paper for the sake of doing something.,-50,80,20","Adrian","Looks like my niece's doodles.,-50,60,20","2"
"36758","","survey-text","181","2684291","0.0-180.0-0.0","ATUA5M7PLS8W3","","","","{""Q0"":""Looks good and maybe abstract to move your head upside down""}","","","","","","","","","","","","","","","","","","","","","","",""
"2021.5999999046326","","image-slider-response","182","2686314","0.0-181.0","ATUA5M7PLS8W3","","","","","27","","","","","","","","","","","","","","","","","","","","","",""
"null","","image-button-response","183","2691317","0.0-182.0","ATUA5M7PLS8W3","img_art/8.jpg","null","","","","","","","","","","","","","","","","","","","","","","","","",""
"717","","image-button-response","184","2692035","0.0-183.0","ATUA5M7PLS8W3","img_art/8.jpg","1","","","","","","","","","","","","","","","","","","","","","","","","",""
"374","","image-button-response","185","2692411","0.0-184.0-0.0","ATUA5M7PLS8W3","img_art/8.jpg","2","","","","","","","","","","","","","","","","","","","","","","","","",""
"607","","image-button-response","186","2693019","0.0-185.0-0.0","ATUA5M7PLS8W3","img_art/8.jpg","0","","","","","","","","","","","","","","","","","","","","","","","","",""
"null","","html-keyboard-response","187","2693523","0.0-186.0","ATUA5M7PLS8W3","<p style=""font-size: 48px;"">+</p>","","","","","null","allTrialResponses","500","1","20","img_art/8.jpg","27","Looks good and maybe abstract to move your head upside down","Adrian,Alejandro,Connor,Adam,Christian,Jonathan","Pleasant colors, lots of interest. Not sure what's going on but I like it.,20,60,20","i like the abstract nature of a birds eye view of the city. The hard shapes and squares present with a softness rather than rigidity.,26,80,20","Lots of depth, faces, city, arch,3,240,20","Eclectic city with good mix of colors.,10,40,20","gives off inception vibes <3,50,140,20","It's very grand and ominous but I like it,25,140,20","Alejandro","i like the abstract nature of a birds eye view of the city. The hard shapes and squares present with a softness rather than rigidity.,26,80,20","Connor","Lots of depth, faces, city, arch,3,240,20","Adrian","Pleasant colors, lots of interest. Not sure what's going on but I like it.,20,60,20","2"
"3560","","survey-text","188","2697091","0.0-187.0-0.0","ATUA5M7PLS8W3","","","","{""Q0"":""we""}","","","","","","","","","","","","","","","","","","","","","","",""
"24950","","survey-text","189","2722042","0.0-188.0-0.0","ATUA5M7PLS8W3","","","","{""Q0"":""Looks creepy""}","","","","","","","","","","","","","","","","","","","","","","",""
"3062.9000000953674","","image-slider-response","190","2725106","0.0-189.0","ATUA5M7PLS8W3","","","","","-46","","","","","","","","","","","","","","","","","","","","","",""
"null","","image-button-response","191","2730120","0.0-190.0","ATUA5M7PLS8W3","img_art/23.jpg","null","","","","","","","","","","","","","","","","","","","","","","","","",""
"625","","image-button-response","192","2730748","0.0-191.0","ATUA5M7PLS8W3","img_art/23.jpg","2","","","","","","","","","","","","","","","","","","","","","","","","",""
"278","","image-button-response","193","2731027","0.0-192.0-0.0","ATUA5M7PLS8W3","img_art/23.jpg","1","","","","","","","","","","","","","","","","","","","","","","","","",""
"350","","image-button-response","194","2731379","0.0-193.0-0.0","ATUA5M7PLS8W3","img_art/23.jpg","0","","","","","","","","","","","","","","","","","","","","","","","","",""
"null","","html-keyboard-response","195","2732883","0.0-194.0","ATUA5M7PLS8W3","<p style=""font-size: 48px;"">+</p>","","","","","null","allTrialResponses","1500","1","21","img_art/23.jpg","-46","Looks creepy","Adrian,Alejandro,Connor,Carlos,David,Noah","Too much contrasting colors together. I hate it.,-50,60,20","I love the funky colors accompanied by perhaps dancing silhouettes. I love the white against the chaotic surroundings.,50,80,20","Confetti dancer,-7,240,20","It feels active and vibrant.,20,80,20","I like the symmetrical design and how it portrays the liveliness of a musical environment.,30,340,20","the pattern of colours imbues in me a sense of infinity, which I find soothing,10,260,20","Connor","Confetti dancer,-7,240,20","Alejandro","I love the funky colors accompanied by perhaps dancing silhouettes. I love the white against the chaotic surroundings.,50,80,20","Adrian","Too much contrasting colors together. I hate it.,-50,60,20","2"
"23347","","survey-text","196","2756235","0.0-195.0-0.0","ATUA5M7PLS8W3","","","","{""Q0"":""Looks like the ground with rocks""}","","","","","","","","","","","","","","","","","","","","","","",""
"2478.0999999046326","","image-slider-response","197","2758714","0.0-196.0","ATUA5M7PLS8W3","","","","","17","","","","","","","","","","","","","","","","","","","","","",""
"null","","image-button-response","198","2763716","0.0-197.0","ATUA5M7PLS8W3","img_art/7.jpg","null","","","","","","","","","","","","","","","","","","","","","","","","",""
"1245","","image-button-response","199","2764963","0.0-198.0","ATUA5M7PLS8W3","img_art/7.jpg","1","","","","","","","","","","","","","","","","","","","","","","","","",""
"638","","image-button-response","200","2765603","0.0-199.0-0.0","ATUA5M7PLS8W3","img_art/7.jpg","4","","","","","","","","","","","","","","","","","","","","","","","","",""
"381","","image-button-response","201","2765986","0.0-200.0-0.0","ATUA5M7PLS8W3","img_art/7.jpg","5","","","","","","","","","","","","","","","","","","","","","","","","",""
"null","","html-keyboard-response","202","2767487","0.0-201.0","ATUA5M7PLS8W3","<p style=""font-size: 48px;"">+</p>","","","","","null","allTrialResponses","1500","1","22","img_art/7.jpg","17","Looks like the ground with rocks","Adrian,Alejandro,Connor,Andrew,Gabriel,Antonio","It's dirty. I don't mind the colors so much as the way they are put together in this dirty-looking pattern.,-41,60,20","I thought I was looking at a satellite image of mars.,21,80,20","Color is bland and looks damaged,-37,240,20","It makes me think of new archaeology discoveries,15,160,20","its like oatmeal with granola,-47,160,20","Looks like dirt on the ground. Makes me feel unclean,-37,220,20","Alejandro","I thought I was looking at a satellite image of mars.,21,80,20","Gabriel","its like oatmeal with granola,-47,160,20","Antonio","Looks like dirt on the ground. Makes me feel unclean,-37,220,20","2"
"16229","","survey-text","203","2783722","0.0-202.0-0.0","ATUA5M7PLS8W3","","","","{""Q0"":""Looks like the future""}","","","","","","","","","","","","","","","","","","","","","","",""
"2302.300000190735","","image-slider-response","204","2786026","0.0-203.0","ATUA5M7PLS8W3","","","","","22","","","","","","","","","","","","","","","","","","","","","",""
"null","","image-button-response","205","2791028","0.0-204.0","ATUA5M7PLS8W3","img_art/11.jpg","null","","","","","","","","","","","","","","","","","","","","","","","","",""
"900","","image-button-response","206","2791931","0.0-205.0","ATUA5M7PLS8W3","img_art/11.jpg","1","","","","","","","","","","","","","","","","","","","","","","","","",""
"383","","image-button-response","207","2792314","0.0-206.0-0.0","ATUA5M7PLS8W3","img_art/11.jpg","0","","","","","","","","","","","","","","","","","","","","","","","","",""
"710","","image-button-response","208","2793026","0.0-207.0-0.0","ATUA5M7PLS8W3","img_art/11.jpg","2","","","","","","","","","","","","","","","","","","","","","","","","",""
"null","","html-keyboard-response","209","2794031","0.0-208.0","ATUA5M7PLS8W3","<p style=""font-size: 48px;"">+</p>","","","","","null","allTrialResponses","1000","1","23","img_art/11.jpg","22","Looks like the future","Justin,Alejandro,Richard,Jose,Gabriel,Antonio","It reminds me of telephone wires.,1,280,20","Enjoyed the lines representing different paths that encompass different entities,20,80,20","I like this one mostly a good combination of colors and light and dark,12,340,20","Makes me feel like my vision is breaking,19,200,20","its like telephone wires, or mountains,-17,160,20","Makes me think of far away places and traveling. Makes me feel like wandering,20,220,20","Alejandro","Enjoyed the lines representing different paths that encompass different entities,20,80,20","Justin","It reminds me of telephone wires.,1,280,20","Richard","I like this one mostly a good combination of colors and light and dark,12,340,20","2"
"88735","","survey-text","210","2882770","0.0-209.0-0.0","ATUA5M7PLS8W3","","","","{""Q0"":""Looks chaotic. ""}","","","","","","","","","","","","","","","","","","","","","","",""
"2046.2999999523163","","image-slider-response","211","2884818","0.0-210.0","ATUA5M7PLS8W3","","","","","-29","","","","","","","","","","","","","","","","","","","","","",""
"null","","image-button-response","212","2889820","0.0-211.0","ATUA5M7PLS8W3","img_art/9.jpg","null","","","","","","","","","","","","","","","","","","","","","","","","",""
"1099","","image-button-response","213","2890922","0.0-212.0","ATUA5M7PLS8W3","img_art/9.jpg","1","","","","","","","","","","","","","","","","","","","","","","","","",""
"341","","image-button-response","214","2891265","0.0-213.0-0.0","ATUA5M7PLS8W3","img_art/9.jpg","0","","","","","","","","","","","","","","","","","","","","","","","","",""
"1623","","image-button-response","215","2892890","0.0-214.0-0.0","ATUA5M7PLS8W3","img_art/9.jpg","5","","","","","","","","","","","","","","","","","","","","","","","","",""
"null","","html-keyboard-response","216","2894392","0.0-215.0","ATUA5M7PLS8W3","<p style=""font-size: 48px;"">+</p>","","","","","null","allTrialResponses","1500","1","24","img_art/9.jpg","-29","Looks chaotic. ","Justin,Alejandro,Richard,Malik,Alexander,Marcus","It reminds me of an illustration for a fairy tale.,19,280,20","Evokes triumph of a mountain over powering a drowning sea,24,80,20","looks like an imitation of a real piece of art, reclining lady,-1,340,20","Colorful and expressive,15,40,20","The mouth of an ugly beast.,-25,120,20","This painting feels too jumbled for me to like it.,-12,60,20","Alejandro","Evokes triumph of a mountain over powering a drowning sea,24,80,20","Justin","It reminds me of an illustration for a fairy tale.,19,280,20","Marcus","This painting feels too jumbled for me to like it.,-12,60,20","2"
"37293","","survey-text","217","2931690","0.0-216.0-0.0","ATUA5M7PLS8W3","","","","{""Q0"":""Looks like fries""}","","","","","","","","","","","","","","","","","","","","","","",""
"2830.0999999046326","","image-slider-response","218","2934522","0.0-217.0","ATUA5M7PLS8W3","","","","","18","","","","","","","","","","","","","","","","","","","","","",""
"null","","image-button-response","219","2939529","0.0-218.0","ATUA5M7PLS8W3","img_art/4.jpg","null","","","","","","","","","","","","","","","","","","","","","","","","",""
"1454","","image-button-response","220","2940986","0.0-219.0","ATUA5M7PLS8W3","img_art/4.jpg","1","","","","","","","","","","","","","","","","","","","","","","","","",""
"2174","","image-button-response","221","2943162","0.0-220.0-0.0","ATUA5M7PLS8W3","img_art/4.jpg","5","","","","","","","","","","","","","","","","","","","","","","","","",""
"390","","image-button-response","222","2943555","0.0-221.0-0.0","ATUA5M7PLS8W3","img_art/4.jpg","4","","","","","","","","","","","","","","","","","","","","","","","","",""
"null","","html-keyboard-response","223","2944057","0.0-222.0","ATUA5M7PLS8W3","<p style=""font-size: 48px;"">+</p>","","","","","null","allTrialResponses","500","1","25","img_art/4.jpg","18","Looks like fries","Justin,Alejandro,Ian,Edward,Brendan,Marcus","Rather boring design and colors.,-21,280,20","Looks like finger nails from the Guinness world record book.,-30,80,20","I just don't understand this one at all, I do not like it,-43,260,20","It reminds me of something a kid would make for their parents,13,60,20","just a scuffed hand,-15,340,20","Really like the colors, but don't like the object/squiggle in darker gold and black,4,60,20","Alejandro","Looks like finger nails from the Guinness world record book.,-30,80,20","Marcus","Really like the colors, but don't like the object/squiggle in darker gold and black,4,60,20","Brendan","just a scuffed hand,-15,340,20","2"
"4393","","survey-text","224","2948458","0.0-223.0-0.0","ATUA5M7PLS8W3","","","","{""Q0"":""table""}","","","","","","","","","","","","","","","","","","","","","","",""
"21518","","survey-text","225","2969977","0.0-224.0-0.0","ATUA5M7PLS8W3","","","","{""Q0"":""Looks good ""}","","","","","","","","","","","","","","","","","","","","","","",""
"2062.699999809265","","image-slider-response","226","2972041","0.0-225.0","ATUA5M7PLS8W3","","","","","39","","","","","","","","","","","","","","","","","","","","","",""
"null","","image-button-response","227","2977052","0.0-226.0","ATUA5M7PLS8W3","img_art/21.jpg","null","","","","","","","","","","","","","","","","","","","","","","","","",""
"9901","","image-button-response","228","2986954","0.0-227.0","ATUA5M7PLS8W3","img_art/21.jpg","1","","","","","","","","","","","","","","","","","","","","","","","","",""
"3454","","image-button-response","229","2990410","0.0-228.0-0.0","ATUA5M7PLS8W3","img_art/21.jpg","3","","","","","","","","","","","","","","","","","","","","","","","","",""
"397","","image-button-response","230","2990810","0.0-229.0-0.0","ATUA5M7PLS8W3","img_art/21.jpg","4","","","","","","","","","","","","","","","","","","","","","","","","",""
"null","","html-keyboard-response","231","2991812","0.0-230.0","ATUA5M7PLS8W3","<p style=""font-size: 48px;"">+</p>","","","","","null","allTrialResponses","1000","1","26","img_art/21.jpg","39","Looks good ","Thomas,Alejandro,James,Isaiah,Brendan,Marcus","Again, I love the use of color,50,220,20","Feels like a clash between land and sea,31,80,20","Don't really lean either way.,1,380,20","I feel the same serene excitement that I feel watching a sunrise on a beach.,38,300,20","looks like a sea during some war,27,340,20","I feel like I'm looking at two different paintings mashed together in the middle.,20,60,20","Alejandro","Feels like a clash between land and sea,31,80,20","Isaiah","I feel the same serene excitement that I feel watching a sunrise on a beach.,38,300,20","Brendan","looks like a sea during some war,27,340,20","2"
"15881","","survey-text","232","3007697","0.0-231.0-0.0","ATUA5M7PLS8W3","","","","{""Q0"":""Looks complex but I like it""}","","","","","","","","","","","","","","","","","","","","","","",""
"3006.300000190735","","image-slider-response","233","3010705","0.0-232.0","ATUA5M7PLS8W3","","","","","19","","","","","","","","","","","","","","","","","","","","","",""
"null","","image-button-response","234","3015708","0.0-233.0","ATUA5M7PLS8W3","img_art/12.jpg","null","","","","","","","","","","","","","","","","","","","","","","","","",""
"659","","image-button-response","235","3016370","0.0-234.0","ATUA5M7PLS8W3","img_art/12.jpg","3","","","","","","","","","","","","","","","","","","","","","","","","",""
"614","","image-button-response","236","3016986","0.0-235.0-0.0","ATUA5M7PLS8W3","img_art/12.jpg","0","","","","","","","","","","","","","","","","","","","","","","","","",""
"350","","image-button-response","237","3017338","0.0-236.0-0.0","ATUA5M7PLS8W3","img_art/12.jpg","1","","","","","","","","","","","","","","","","","","","","","","","","",""
"null","","html-keyboard-response","238","3017840","0.0-237.0","ATUA5M7PLS8W3","<p style=""font-size: 48px;"">+</p>","","","","","null","allTrialResponses","500","1","27","img_art/12.jpg","19","Looks complex but I like it","Kevin,Alejandro,Kyle,Isaiah,Brendan,Dustin","That is a warn quilt grama made.,11,320,20","I like the sectioned nature of the squares and curves. Not my favorite but still a good one.,27,80,20","It's just not my style,-18,340,20","The painting makes me uncomfortable. The smears in the boxes feel like a giant mess.,-16,300,20","wtf is that i dont get it,-50,340,20","Squares are rigid. I'm ambivalent.,1,20,20","Isaiah","The painting makes me uncomfortable. The smears in the boxes feel like a giant mess.,-16,300,20","Kevin","That is a warn quilt grama made.,11,320,20","Alejandro","I like the sectioned nature of the squares and curves. Not my favorite but still a good one.,27,80,20","2"
"15267","","survey-text","239","3033122","0.0-238.0-0.0","ATUA5M7PLS8W3","","","","{""Q0"":""Looks weird but I like the art""}","","","","","","","","","","","","","","","","","","","","","","",""
"2231.4000000953674","","image-slider-response","240","3035355","0.0-239.0","ATUA5M7PLS8W3","","","","","23","","","","","","","","","","","","","","","","","","","","","",""
"null","","image-button-response","241","3040373","0.0-240.0","ATUA5M7PLS8W3","img_art/10.jpg","null","","","","","","","","","","","","","","","","","","","","","","","","",""
"20154","","image-button-response","242","3060530","0.0-241.0","ATUA5M7PLS8W3","img_art/10.jpg","1","","","","","","","","","","","","","","","","","","","","","","","","",""
"422","","image-button-response","243","3060954","0.0-242.0-0.0","ATUA5M7PLS8W3","img_art/10.jpg","0","","","","","","","","","","","","","","","","","","","","","","","","",""
"423","","image-button-response","244","3061378","0.0-243.0-0.0","ATUA5M7PLS8W3","img_art/10.jpg","2","","","","","","","","","","","","","","","","","","","","","","","","",""
"null","","html-keyboard-response","245","3062379","0.0-244.0","ATUA5M7PLS8W3","<p style=""font-size: 48px;"">+</p>","","","","","null","allTrialResponses","1000","1","28","img_art/10.jpg","23","Looks weird but I like the art","Kevin,Alejandro,Devon,Isaiah,Jake,Cole","Thats a horses head,10,320,20","The contrast between the messy dots/dabs vs the straight affluent lines is unappealing,-20,80,20","awww... this looks very nice,32,400,20","I feel little to no emotion looking at this painting.,0,300,20","This is odd and ugly.,-9,360,20","It confuses me. I dont know whats going on,14,200,20","Alejandro","The contrast between the messy dots/dabs vs the straight affluent lines is unappealing,-20,80,20","Kevin","Thats a horses head,10,320,20","Devon","awww... this looks very nice,32,400,20","2"
"55721","","survey-text","246","3118106","0.0-245.0-0.0","ATUA5M7PLS8W3","","","","{""Q0"":""Looks good and fierce ""}","","","","","","","","","","","","","","","","","","","","","","",""
"2431","","image-slider-response","247","3120538","0.0-246.0","ATUA5M7PLS8W3","","","","","30","","","","","","","","","","","","","","","","","","","","","",""
"null","","image-button-response","248","3125542","0.0-247.0","ATUA5M7PLS8W3","img_art/18.jpg","null","","","","","","","","","","","","","","","","","","","","","","","","",""
"665","","image-button-response","249","3126210","0.0-248.0","ATUA5M7PLS8W3","img_art/18.jpg","4","","","","","","","","","","","","","","","","","","","","","","","","",""
"391","","image-button-response","250","3126603","0.0-249.0-0.0","ATUA5M7PLS8W3","img_art/18.jpg","5","","","","","","","","","","","","","","","","","","","","","","","","",""
"461","","image-button-response","251","3127066","0.0-250.0-0.0","ATUA5M7PLS8W3","img_art/18.jpg","3","","","","","","","","","","","","","","","","","","","","","","","","",""
"null","","html-keyboard-response","252","3128069","0.0-251.0","ATUA5M7PLS8W3","<p style=""font-size: 48px;"">+</p>","","","","","null","allTrialResponses","1000","1","29","img_art/18.jpg","30","Looks good and fierce ","Kevin,Alejandro,Devon,Shawn,Tristan,Peter","Pirate ship in stormy seas before it sank.,11,320,20","I love this because abstractly depicts the apocalypse. The white horse and its rider as Death, described in religious texts and pop culture. ""He rode a pale horse and his name was death."",50,80,20","I really like this one - there seems to be a story behind it,32,400,20","Evocative but cheesy.,-20,100,20","So much going on. Frightening and tumultous, brave and inspiring. I'd like to spend the rest of my life interpreting it.,30,300,20","I'm not partial to the design, unsettling,2,320,20","Tristan","So much going on. Frightening and tumultous, brave and inspiring. I'd like to spend the rest of my life interpreting it.,30,300,20","Peter","I'm not partial to the design, unsettling,2,320,20","Shawn","Evocative but cheesy.,-20,100,20","2"
"27039","","survey-text","253","3155114","0.0-252.0-0.0","ATUA5M7PLS8W3","","","","{""Q0"":""I kind of like it and seems to be a worship ""}","","","","","","","","","","","","","","","","","","","","","","",""
"2990.5","","image-slider-response","254","3158106","0.0-253.0","ATUA5M7PLS8W3","","","","","-9","","","","","","","","","","","","","","","","","","","","","",""
"null","","image-button-response","255","3163129","0.0-254.0","ATUA5M7PLS8W3","img_art/25.jpg","null","","","","","","","","","","","","","","","","","","","","","","","","",""
"10641","","image-button-response","256","3173787","0.0-255.0","ATUA5M7PLS8W3","img_art/25.jpg","4","","","","","","","","","","","","","","","","","","","","","","","","",""
"375","","image-button-response","257","3174163","0.0-256.0-0.0","ATUA5M7PLS8W3","img_art/25.jpg","3","","","","","","","","","","","","","","","","","","","","","","","","",""
"740","","image-button-response","258","3174906","0.0-257.0-0.0","ATUA5M7PLS8W3","img_art/25.jpg","1","","","","","","","","","","","","","","","","","","","","","","","","",""
"null","","html-keyboard-response","259","3175908","0.0-258.0","ATUA5M7PLS8W3","<p style=""font-size: 48px;"">+</p>","","","","","null","allTrialResponses","1000","1","30","img_art/25.jpg","-9","I kind of like it and seems to be a worship ","Elijah,Mason,Patrick,Shawn,Tristan,Peter","Makes me feel intrigued,13,80,20","death. childish nightmare.,-29,100,20","Green color is not my thing,-29,280,20","Cheesy and unprofessional,-30,100,20","The limited palette make this figure mysterious and interpret-able.,20,300,20","It's very mystical.,5,320,20","Tristan","The limited palette make this figure mysterious and interpret-able.,20,300,20","Shawn","Cheesy and unprofessional,-30,100,20","Mason","death. childish nightmare.,-29,100,20","2"
"3634","","image-button-response_instructions","260","3179555","0.0-259.0","ATUA5M7PLS8W3","","0","instructions","","","","","","","","","","","","","","","","","","","","","","","",""
"1113","","image-button-response","261","3180674","0.0-260.0","ATUA5M7PLS8W3","","0","","","","","","","","","","","","","","","","","","","","","","","","",""
