"rt","url","trial_type","trial_index","time_elapsed","internal_node_id","participant_id","stimulus","button_pressed","Name","responses","response","key_press","variableName","fixationTime","condition","trial","photo","subjectRating","subjectResponse","agentsNames","agent_1_Response","agent_2_Response","agent_3_Response","agent_4_Response","agent_5_Response","agent_6_Response","kept_1_name","kept_1_response","kept_2_name","kept_2_response","kept_3_name","kept_3_response","errorCounter"
"6542","external_page_harvard.html","external-html","0","6769","0.0-0.0","AU34T9OMHN4Z4","","","","","","","","","","","","","","","","","","","","","","","","","","",""
"1338","","image-button-response","1","8109","0.0-1.0","AU34T9OMHN4Z4","","1","","","","","","","","","","","","","","","","","","","","","","","","",""
"2333","","image-button-response","2","10444","0.0-2.0-0.0","AU34T9OMHN4Z4","","1","phone","","","","","","","","","","","","","","","","","","","","","","","",""
"6175","","survey-text","3","16620","0.0-3.0-0.0","AU34T9OMHN4Z4","","","","{""Q0"":""AU34T9OMHN4Z4""}","","","","","","","","","","","","","","","","","","","","","","",""
"4443","","image-button-response_instructions","4","21064","0.0-4.0","AU34T9OMHN4Z4","","0","instructions","","","","","","","","","","","","","","","","","","","","","","","",""
"8053","","image-button-response_instructions","5","29118","0.0-5.0","AU34T9OMHN4Z4","img_art/ins/popularity/ins1.png","0","instructions","","","","","","","","","","","","","","","","","","","","","","","",""
"8491","","image-button-response_instructions","6","37610","0.0-6.0","AU34T9OMHN4Z4","img_art/ins/popularity/ins2.png","0","instructions","","","","","","","","","","","","","","","","","","","","","","","",""
"4474","","image-button-response_instructions","7","42084","0.0-7.0","AU34T9OMHN4Z4","img_art/ins/popularity/ins2Extreme.png","0","instructions","","","","","","","","","","","","","","","","","","","","","","","",""
"18809","","image-button-response_instructions","8","60894","0.0-8.0","AU34T9OMHN4Z4","img_art/ins/popularity/ins3KEEPpop.PNG","0","instructions","","","","","","","","","","","","","","","","","","","","","","","",""
"3803","","image-button-response_instructions","9","64697","0.0-9.0","AU34T9OMHN4Z4","img_art/ins/popularity/ins3ANamepop.PNG","0","instructions","","","","","","","","","","","","","","","","","","","","","","","",""
"4189","","image-button-response_instructions","10","68887","0.0-10.0","AU34T9OMHN4Z4","img_art/ins/popularity/ins3ARatingpop.png","0","instructions","","","","","","","","","","","","","","","","","","","","","","","",""
"3637","","image-button-response_instructions","11","72526","0.0-11.0","AU34T9OMHN4Z4","img_art/ins/popularity/ins3ATextpop.png","0","instructions","","","","","","","","","","","","","","","","","","","","","","","",""
"5176","","image-button-response_instructions","12","77702","0.0-12.0","AU34T9OMHN4Z4","img_art/ins/popularity/ins3ALikespop.png","0","instructions","","","","","","","","","","","","","","","","","","","","","","","",""
"17606","","image-button-response_instructions","13","95310","0.0-13.0","AU34T9OMHN4Z4","img_art/ins/popularity/ins3KEEPpop.PNG","0","instructions","","","","","","","","","","","","","","","","","","","","","","","",""
"16775","","image-button-response_instructions","14","112086","0.0-14.0","AU34T9OMHN4Z4","img_art/ins/popularity/ins3_5RED.png","0","instructions","","","","","","","","","","","","","","","","","","","","","","","",""
"5769","","image-button-response_instructions","15","117856","0.0-15.0","AU34T9OMHN4Z4","img_art/ins/popularity/ins3KEEPpop.PNG","0","instructions","","","","","","","","","","","","","","","","","","","","","","","",""
"6799","","image-button-response_instructions","16","124655","0.0-16.0","AU34T9OMHN4Z4","img_art/ins/popularity/ins4KEEPpop.PNG","0","instructions","","","","","","","","","","","","","","","","","","","","","","","",""
"4783","","image-button-response_instructions","17","129439","0.0-17.0","AU34T9OMHN4Z4","img_art/ins/popularity/ins5KEEPpop.PNG","0","instructions","","","","","","","","","","","","","","","","","","","","","","","",""
"1965","","image-button-response_instructions","18","131405","0.0-18.0","AU34T9OMHN4Z4","","0","instructions","","","","","","","","","","","","","","","","","","","","","","","",""
"4687","","survey-text","19","136109","0.0-19.0-0.0","AU34T9OMHN4Z4","","","","{""Q0"":""but""}","","","","","","","","","","","","","","","","","","","","","","",""
"27343","","survey-text","20","163453","0.0-20.0-0.0","AU34T9OMHN4Z4","","","","{""Q0"":""Looks like a bunch of random colors with no direction.""}","","","","","","","","","","","","","","","","","","","","","","",""
"5970.29999999702","","image-slider-response","21","169426","0.0-21.0","AU34T9OMHN4Z4","","","","","-37","","","","","","","","","","","","","","","","","","","","","",""
"null","","image-button-response","22","174430","0.0-22.0","AU34T9OMHN4Z4","img_art/ins/1.jpg","null","","","","","","","","","","","","","","","","","","","","","","","","",""
"1075","","image-button-response","23","175506","0.0-23.0","AU34T9OMHN4Z4","img_art/ins/1.jpg","1","","","","","","","","","","","","","","","","","","","","","","","","",""
"2660","","image-button-response","24","178168","0.0-24.0-0.0","AU34T9OMHN4Z4","img_art/ins/1.jpg","3","","","","","","","","","","","","","","","","","","","","","","","","",""
"6264","","image-button-response","25","184434","0.0-25.0-0.0","AU34T9OMHN4Z4","img_art/ins/1.jpg","4","","","","","","","","","","","","","","","","","","","","","","","","",""
"null","","html-keyboard-response","26","185437","0.0-26.0","AU34T9OMHN4Z4","<p style=""font-size: 48px;"">+</p>","","","","","null","allTrialResponses","1000","1","-2","img_art/ins/1.jpg","-37","Looks like a bunch of random colors with no direction.","Allison,Ashley,Beth,Dora,Erika,Jen","looks like a lot of things going on in the mist,20,20,20","I just don't get why these type of art would be popular,-32,40,20","This color reminds me of poo,-46,60,20","looks like what my niece in 3rd grade did this afternoon,-50,80,20","I like the sophisticated brushwork,40,100,20","It reminds me of a candy land dream I had,36,120,20","Ashley","I just don't get why these type of art would be popular,-32,40,20","Dora","looks like what my niece in 3rd grade did this afternoon,-50,80,20","Erika","I like the sophisticated brushwork,40,100,20","0"
"16828","","survey-text","27","202282","0.0-27.0-0.0","AU34T9OMHN4Z4","","","","{""Q0"":""I don't understand what it is supposed to represent.""}","","","","","","","","","","","","","","","","","","","","","","",""
"5503.19999999553","","image-slider-response","28","207786","0.0-28.0","AU34T9OMHN4Z4","","","","","-43","","","","","","","","","","","","","","","","","","","","","",""
"null","","image-button-response","29","212788","0.0-29.0","AU34T9OMHN4Z4","img_art/ins/2.jpg","null","","","","","","","","","","","","","","","","","","","","","","","","",""
"6003","","image-button-response","30","218794","0.0-30.0","AU34T9OMHN4Z4","img_art/ins/2.jpg","1","","","","","","","","","","","","","","","","","","","","","","","","",""
"3144","","image-button-response","31","221940","0.0-31.0-0.0","AU34T9OMHN4Z4","img_art/ins/2.jpg","3","","","","","","","","","","","","","","","","","","","","","","","","",""
"3424","","image-button-response","32","225366","0.0-32.0-0.0","AU34T9OMHN4Z4","img_art/ins/2.jpg","5","","","","","","","","","","","","","","","","","","","","","","","","",""
"null","","html-keyboard-response","33","226867","0.0-33.0","AU34T9OMHN4Z4","<p style=""font-size: 48px;"">+</p>","","","","","null","allTrialResponses","1500","1","-1","img_art/ins/2.jpg","-43","I don't understand what it is supposed to represent.","Jenna,Ashley,Kara,Dora,Erika,Katie","One of my pet peevs,-48,140,20","Idk, it is just annoying,-32,40,20","I like the blocks of color arrangements,30,160,20","looks too angry,-50,80,20","I would never be able to compose a sophisticated pallete like this,48,100,20","too much color!,-28,180,20","Ashley","Idk, it is just annoying,-32,40,20","Dora","looks too angry,-50,80,20","Katie","too much color!,-28,180,20","0"
"17551","","survey-text","34","244424","0.0-34.0-0.0","AU34T9OMHN4Z4","","","","{""Q0"":""I like the colors here.""}","","","","","","","","","","","","","","","","","","","","","","",""
"3312.7000000029802","","image-slider-response","35","247738","0.0-35.0","AU34T9OMHN4Z4","","","","","24","","","","","","","","","","","","","","","","","","","","","",""
"null","","image-button-response","36","252739","0.0-36.0","AU34T9OMHN4Z4","img_art/ins/3.jpg","null","","","","","","","","","","","","","","","","","","","","","","","","",""
"845","","image-button-response","37","253586","0.0-37.0","AU34T9OMHN4Z4","img_art/ins/3.jpg","4","","","","","","","","","","","","","","","","","","","","","","","","",""
"1394","","image-button-response","38","254980","0.0-38.0-0.0","AU34T9OMHN4Z4","img_art/ins/3.jpg","0","","","","","","","","","","","","","","","","","","","","","","","","",""
"1001","","image-button-response","39","255983","0.0-39.0-0.0","AU34T9OMHN4Z4","img_art/ins/3.jpg","5","","","","","","","","","","","","","","","","","","","","","","","","",""
"null","","html-keyboard-response","40","256485","0.0-40.0","AU34T9OMHN4Z4","<p style=""font-size: 48px;"">+</p>","","","","","null","allTrialResponses","500","1","0","img_art/ins/3.jpg","24","I like the colors here.","Leslie,Ashley,Rose,Dora,Mary,Katie","It's an alright work,15,200,20","It looks like a playground for bats,-36,40,20","My daily routine, it's depressing,-20,240,20","My worst nightmare,-42,80,20","I like the overlapping of brushes,41,220,20","It looks depressing,-26,180,20","Mary","I like the overlapping of brushes,41,220,20","Leslie","It's an alright work,15,200,20","Katie","It looks depressing,-26,180,20","0"
"5291","","image-button-response_instructions","41","261780","0.0-41.0","AU34T9OMHN4Z4","","0","instructions","","","","","","","","","","","","","","","","","","","","","","","",""
"9478","","survey-likert","42","271258","0.0-42.0-0.0","AU34T9OMHN4Z4","","","","{""Q0"":"""",""Q1"":0,""Q2"":1}","","","","","","","","","","","","","","","","","","","","","","",""
"4829","","survey-text","43","276090","0.0-43.0-0.0","AU34T9OMHN4Z4","","","","{""Q0"":""rock""}","","","","","","","","","","","","","","","","","","","","","","",""
"19340","","survey-text","44","295432","0.0-44.0-0.0","AU34T9OMHN4Z4","","","","{""Q0"":""It doesn't look very cohesive""}","","","","","","","","","","","","","","","","","","","","","","",""
"2331.10000000149","","image-slider-response","45","297764","0.0-45.0","AU34T9OMHN4Z4","","","","","-26","","","","","","","","","","","","","","","","","","","","","",""
"null","","image-button-response","46","302782","0.0-46.0","AU34T9OMHN4Z4","img_art/21.jpg","null","","","","","","","","","","","","","","","","","","","","","","","","",""
"14429","","image-button-response","47","317214","0.0-47.0","AU34T9OMHN4Z4","img_art/21.jpg","4","","","","","","","","","","","","","","","","","","","","","","","","",""
"3523","","image-button-response","48","320738","0.0-48.0-0.0","AU34T9OMHN4Z4","img_art/21.jpg","3","","","","","","","","","","","","","","","","","","","","","","","","",""
"2016","","image-button-response","49","322756","0.0-49.0-0.0","AU34T9OMHN4Z4","img_art/21.jpg","0","","","","","","","","","","","","","","","","","","","","","","","","",""
"null","","html-keyboard-response","50","324259","0.0-50.0","AU34T9OMHN4Z4","<p style=""font-size: 48px;"">+</p>","","","","","null","allTrialResponses","1500","1","1","img_art/21.jpg","-26","It doesn't look very cohesive","Shannon,Catherine,Sierra,Rachel,Kaylee,Kaitlin","I like the sky a little bit the way the colors look for the sky, the cliff side looks a little weird though.,10,220,20","Nature, water, ever changing. Cold then warm. Reaction is mostly positive and some negative,30,160,20","i like the way the colors divide the canvas.,16,260,20","Looks like a body of water during a sunset. I like this piece.,21,80,20","looks like a sea during some war,27,200,20","waterpaint is attractive,13,60,20","Kaylee","looks like a sea during some war,27,200,20","Rachel","Looks like a body of water during a sunset. I like this piece.,21,80,20","Shannon","I like the sky a little bit the way the colors look for the sky, the cliff side looks a little weird though.,10,220,20","0"
"30208","","survey-text","51","354476","0.0-51.0-0.0","AU34T9OMHN4Z4","","","","{""Q0"":""Too many colors ruin the entire picture for me""}","","","","","","","","","","","","","","","","","","","","","","",""
"2353.2000000029802","","image-slider-response","52","356830","0.0-52.0","AU34T9OMHN4Z4","","","","","-38","","","","","","","","","","","","","","","","","","","","","",""
"3399","","image-button-response","53","361832","0.0-53.0","AU34T9OMHN4Z4","img_art/9.jpg","2","","","","","","","","","","","","","","","","","","","","","","","","",""
"1552","","image-button-response","54","363388","0.0-54.0","AU34T9OMHN4Z4","img_art/9.jpg","4","","","","","","","","","","","","","","","","","","","","","","","","",""
"4416","","image-button-response","55","367806","0.0-55.0-0.0","AU34T9OMHN4Z4","img_art/9.jpg","2","","","","","","","","","","","","","","","","","","","","","","","","",""
"4861","","image-button-response","56","372668","0.0-56.0-0.0","AU34T9OMHN4Z4","img_art/9.jpg","5","","","","","","","","","","","","","","","","","","","","","","","","",""
"null","","html-keyboard-response","57","373670","0.0-57.0","AU34T9OMHN4Z4","<p style=""font-size: 48px;"">+</p>","","","","","null","allTrialResponses","1000","1","2","img_art/9.jpg","-38","Too many colors ruin the entire picture for me","Shannon,Meghan,Autumn,Rachel,Kaylee,Mackenzie","This looks like someone sleeping in a bed, and I think the colors make it look interesting.,20,220,20","looks like someone resting,12,220,20","Abstract but not well made,-26,340,20","It looks like a lady taking a peaceful nap on a blanket in the grass.,41,80,20","not my type of art,-33,200,20","I enjoy the design, but the colors look waxy,-7,20,20","Kaylee","not my type of art,-33,200,20","Autumn","Abstract but not well made,-26,340,20","Mackenzie","I enjoy the design, but the colors look waxy,-7,20,20","0"
"38591","","survey-text","58","412270","0.0-58.0-0.0","AU34T9OMHN4Z4","","","","{""Q0"":""I can't tell what they are trying to do with the colors""}","","","","","","","","","","","","","","","","","","","","","","",""
"2406.5","","image-slider-response","59","414678","0.0-59.0","AU34T9OMHN4Z4","","","","","-40","","","","","","","","","","","","","","","","","","","","","",""
"1536","","image-button-response","60","419680","0.0-60.0","AU34T9OMHN4Z4","img_art/2.jpg","0","","","","","","","","","","","","","","","","","","","","","","","","",""
"3298","","image-button-response","61","422982","0.0-61.0","AU34T9OMHN4Z4","img_art/2.jpg","3","","","","","","","","","","","","","","","","","","","","","","","","",""
"1107","","image-button-response","62","424090","0.0-62.0-0.0","AU34T9OMHN4Z4","img_art/2.jpg","4","","","","","","","","","","","","","","","","","","","","","","","","",""
"2372","","image-button-response","63","426463","0.0-63.0-0.0","AU34T9OMHN4Z4","img_art/2.jpg","2","","","","","","","","","","","","","","","","","","","","","","","","",""
"null","","html-keyboard-response","64","427964","0.0-64.0","AU34T9OMHN4Z4","<p style=""font-size: 48px;"">+</p>","","","","","null","allTrialResponses","1500","1","3","img_art/2.jpg","-40","I can't tell what they are trying to do with the colors","Sabrina,Mary,Autumn,Bailey,Kaylee,Mackenzie","I dont like the expression of this,-19,120,20","This looks like a professional abstract drawing. I like the shapes.,7,180,20","7 year old painted?,-35,340,20","Too gloopy and unfocused,-38,360,20","its ugly af to be honest,-50,200,20","Muted green is overpowering,-10,20,20","Bailey","Too gloopy and unfocused,-38,360,20","Kaylee","its ugly af to be honest,-50,200,20","Autumn","7 year old painted?,-35,340,20","0"
"62859","","survey-text","65","490829","0.0-65.0-0.0","AU34T9OMHN4Z4","","","","{""Q0"":""I like the colors used and the use of them""}","","","","","","","","","","","","","","","","","","","","","","",""
"5050.80000000447","","image-slider-response","66","495881","0.0-66.0","AU34T9OMHN4Z4","","","","","24","","","","","","","","","","","","","","","","","","","","","",""
"4417","","image-button-response","67","500884","0.0-67.0","AU34T9OMHN4Z4","img_art/8.jpg","1","","","","","","","","","","","","","","","","","","","","","","","","",""
"752","","image-button-response","68","501640","0.0-68.0","AU34T9OMHN4Z4","img_art/8.jpg","1","","","","","","","","","","","","","","","","","","","","","","","","",""
"2378","","image-button-response","69","504019","0.0-69.0-0.0","AU34T9OMHN4Z4","img_art/8.jpg","2","","","","","","","","","","","","","","","","","","","","","","","","",""
"1877","","image-button-response","70","505898","0.0-70.0-0.0","AU34T9OMHN4Z4","img_art/8.jpg","4","","","","","","","","","","","","","","","","","","","","","","","","",""
"null","","html-keyboard-response","71","506400","0.0-71.0","AU34T9OMHN4Z4","<p style=""font-size: 48px;"">+</p>","","","","","null","allTrialResponses","500","1","4","img_art/8.jpg","24","I like the colors used and the use of them","Alexis,Caroline,Autumn,Bailey,Kaylee,Claire","Reminds me of old 80s fantasy book covers. Nostalgic,23,100,20","I love the colors in it and also the faces and door ways. Made me feel hopeful,35,100,20","Well painted. Not my style.,27,340,20","Not a fan of abstract looking pieces with too many focal points. The tunnel and face, for example,-31,360,20","beautiful buildings,32,200,20","looks like an aerial view, very pretty,32,260,20","Caroline","I love the colors in it and also the faces and door ways. Made me feel hopeful,35,100,20","Autumn","Well painted. Not my style.,27,340,20","Kaylee","beautiful buildings,32,200,20","0"
"23328","","survey-text","72","529734","0.0-72.0-0.0","AU34T9OMHN4Z4","","","","{""Q0"":""It looks like a childs watercolor""}","","","","","","","","","","","","","","","","","","","","","","",""
"3795.60000000149","","image-slider-response","73","533531","0.0-73.0","AU34T9OMHN4Z4","","","","","2","","","","","","","","","","","","","","","","","","","","","",""
"null","","image-button-response","74","538535","0.0-74.0","AU34T9OMHN4Z4","img_art/26.jpg","null","","","","","","","","","","","","","","","","","","","","","","","","",""
"1531","","image-button-response","75","540070","0.0-75.0","AU34T9OMHN4Z4","img_art/26.jpg","2","","","","","","","","","","","","","","","","","","","","","","","","",""
"1057","","image-button-response","76","541128","0.0-76.0-0.0","AU34T9OMHN4Z4","img_art/26.jpg","5","","","","","","","","","","","","","","","","","","","","","","","","",""
"4124","","image-button-response","77","545254","0.0-77.0-0.0","AU34T9OMHN4Z4","img_art/26.jpg","3","","","","","","","","","","","","","","","","","","","","","","","","",""
"null","","html-keyboard-response","78","546756","0.0-78.0","AU34T9OMHN4Z4","<p style=""font-size: 48px;"">+</p>","","","","","null","allTrialResponses","1500","1","5","img_art/26.jpg","2","It looks like a childs watercolor","Taylor,Caroline,Autumn,Rebecca,Kaylee,Alexa","Makes me want to walk down a cool street,20,340,20","Calming and relaxing,28,100,20","Murky, messy, kid like.,-45,340,20","love the ""lowkey"" vibrant colors that are colorful but at the same time greyscale,12,100,20","cool cozy town vibes,50,200,20","Looks messy and like it was painted by a small child,-48,40,20","Autumn","Murky, messy, kid like.,-45,340,20","Alexa","Looks messy and like it was painted by a small child,-48,40,20","Rebecca","love the ""lowkey"" vibrant colors that are colorful but at the same time greyscale,12,100,20","0"
"5432","","survey-text","79","552206","0.0-79.0-0.0","AU34T9OMHN4Z4","","","","{""Q0"":""sky""}","","","","","","","","","","","","","","","","","","","","","","",""
"14023","","survey-text","80","566229","0.0-80.0-0.0","AU34T9OMHN4Z4","","","","{""Q0"":""The colors are bright, but it looks boring""}","","","","","","","","","","","","","","","","","","","","","","",""
"2928.5","","image-slider-response","81","569159","0.0-81.0","AU34T9OMHN4Z4","","","","","-41","","","","","","","","","","","","","","","","","","","","","",""
"null","","image-button-response","82","574162","0.0-82.0","AU34T9OMHN4Z4","img_art/5.jpg","null","","","","","","","","","","","","","","","","","","","","","","","","",""
"3890","","image-button-response","83","578056","0.0-83.0","AU34T9OMHN4Z4","img_art/5.jpg","4","","","","","","","","","","","","","","","","","","","","","","","","",""
"1169","","image-button-response","84","579226","0.0-84.0-0.0","AU34T9OMHN4Z4","img_art/5.jpg","3","","","","","","","","","","","","","","","","","","","","","","","","",""
"2116","","image-button-response","85","581344","0.0-85.0-0.0","AU34T9OMHN4Z4","img_art/5.jpg","5","","","","","","","","","","","","","","","","","","","","","","","","",""
"null","","html-keyboard-response","86","582346","0.0-86.0","AU34T9OMHN4Z4","<p style=""font-size: 48px;"">+</p>","","","","","null","allTrialResponses","1000","1","6","img_art/5.jpg","-41","The colors are bright, but it looks boring","Andrea,Kayla,Autumn,Rebecca,Savannah,Alexa","Perfume bottle, reminds of fancy nights out.,11,240,20","I like that the pyramid is putting off a beacon of light.,11,180,20","Appealing but shapeless,24,340,20","sorry not my style,-37,100,20","Boring and appears low effort,-41,200,20","It's okay. Don't hate it but don't love it either,0,40,20","Savannah","Boring and appears low effort,-41,200,20","Rebecca","sorry not my style,-37,100,20","Alexa","It's okay. Don't hate it but don't love it either,0,40,20","0"
"30586","","survey-text","87","612940","0.0-87.0-0.0","AU34T9OMHN4Z4","","","","{""Q0"":""The colors are bright, but I don't know what it is trying to convey""}","","","","","","","","","","","","","","","","","","","","","","",""
"3028.39999999851","","image-slider-response","88","615969","0.0-88.0","AU34T9OMHN4Z4","","","","","-25","","","","","","","","","","","","","","","","","","","","","",""
"null","","image-button-response","89","620972","0.0-89.0","AU34T9OMHN4Z4","img_art/14.jpg","null","","","","","","","","","","","","","","","","","","","","","","","","",""
"3442","","image-button-response","90","624416","0.0-90.0","AU34T9OMHN4Z4","img_art/14.jpg","3","","","","","","","","","","","","","","","","","","","","","","","","",""
"1771","","image-button-response","91","626188","0.0-91.0-0.0","AU34T9OMHN4Z4","img_art/14.jpg","4","","","","","","","","","","","","","","","","","","","","","","","","",""
"4667","","image-button-response","92","630856","0.0-92.0-0.0","AU34T9OMHN4Z4","img_art/14.jpg","2","","","","","","","","","","","","","","","","","","","","","","","","",""
"null","","html-keyboard-response","93","632359","0.0-93.0","AU34T9OMHN4Z4","<p style=""font-size: 48px;"">+</p>","","","","","null","allTrialResponses","1500","1","7","img_art/14.jpg","-25","The colors are bright, but I don't know what it is trying to convey","Cassandra,Gabrielle,Erica,Rebecca,Savannah,Alexa","I kind of like it...I like the white back ground,11,120,20","the colors are peaceful and nature colors, soft,37,160,20","positive colours, makes me to look at it and investigate what is going on,27,80,20","medium recalls back to an oriental style,16,100,20","Again. This is pretty neutral, leaning dislike.,-18,200,20","Very abstract and colorful,40,40,20","Rebecca","medium recalls back to an oriental style,16,100,20","Savannah","Again. This is pretty neutral, leaning dislike.,-18,200,20","Erica","positive colours, makes me to look at it and investigate what is going on,27,80,20","0"
"12852","","survey-text","94","645223","0.0-94.0-0.0","AU34T9OMHN4Z4","","","","{""Q0"":""Dull and boring.""}","","","","","","","","","","","","","","","","","","","","","","",""
"3112.9000000059605","","image-slider-response","95","648337","0.0-95.0","AU34T9OMHN4Z4","","","","","-50","","","","","","","","","","","","","","","","","","","","","",""
"4810","","image-button-response","96","653340","0.0-96.0","AU34T9OMHN4Z4","img_art/15.jpg","2","","","","","","","","","","","","","","","","","","","","","","","","",""
"1367","","image-button-response","97","654710","0.0-97.0","AU34T9OMHN4Z4","img_art/15.jpg","2","","","","","","","","","","","","","","","","","","","","","","","","",""
"1767","","image-button-response","98","656478","0.0-98.0-0.0","AU34T9OMHN4Z4","img_art/15.jpg","0","","","","","","","","","","","","","","","","","","","","","","","","",""
"15580","","image-button-response","99","672060","0.0-99.0-0.0","AU34T9OMHN4Z4","img_art/15.jpg","4","","","","","","","","","","","","","","","","","","","","","","","","",""
"null","","html-keyboard-response","100","673561","0.0-100.0","AU34T9OMHN4Z4","<p style=""font-size: 48px;"">+</p>","","","","","null","allTrialResponses","1500","1","8","img_art/15.jpg","-50","Dull and boring.","Olivia,Jasmine,Erica,Rebecca,Savannah,Ashley","Black reminds me of darkness,-18,40,20","I like it as the colors complement each other well,21,340,20","dark and I can not see a meaning behind it,-31,80,20","very unsettling! like reverse porcelain esp because of the colors,28,100,20","Love the accent colors in this piece!,20,200,20","I think of birds, nature, levels of space.,18,320,20","Erica","dark and I can not see a meaning behind it,-31,80,20","Olivia","Black reminds me of darkness,-18,40,20","Savannah","Love the accent colors in this piece!,20,200,20","0"
"26897","","survey-text","101","700462","0.0-101.0-0.0","AU34T9OMHN4Z4","","","","{""Q0"":""I don't really know what is going on here""}","","","","","","","","","","","","","","","","","","","","","","",""
"3250.5","","image-slider-response","102","703714","0.0-102.0","AU34T9OMHN4Z4","","","","","-50","","","","","","","","","","","","","","","","","","","","","",""
"null","","image-button-response","103","708715","0.0-103.0","AU34T9OMHN4Z4","img_art/16.jpg","null","","","","","","","","","","","","","","","","","","","","","","","","",""
"2841","","image-button-response","104","711559","0.0-104.0","AU34T9OMHN4Z4","img_art/16.jpg","3","","","","","","","","","","","","","","","","","","","","","","","","",""
"2202","","image-button-response","105","713762","0.0-105.0-0.0","AU34T9OMHN4Z4","img_art/16.jpg","4","","","","","","","","","","","","","","","","","","","","","","","","",""
"2785","","image-button-response","106","716548","0.0-106.0-0.0","AU34T9OMHN4Z4","img_art/16.jpg","5","","","","","","","","","","","","","","","","","","","","","","","","",""
"null","","html-keyboard-response","107","718050","0.0-107.0","AU34T9OMHN4Z4","<p style=""font-size: 48px;"">+</p>","","","","","null","allTrialResponses","1500","1","9","img_art/16.jpg","-50","I don't really know what is going on here","Olivia,Amanda,Erica,Katie,Savannah,Jordan","childhood horror,3,40,20","Very modern, reminds me of bansky,43,180,20","Teddy bear calls positive emotional response but then I get worried about what is about to happen,18,80,20","Upsetting and disturbing. Random bear and indistinguishable objects. None of it goes together. Too chaotic and random,-50,160,20","A strange collage made by a child. Do not like the colored face of the bear.,-29,200,20","Not interested at all,-15,20,20","Katie","Upsetting and disturbing. Random bear and indistinguishable objects. None of it goes together. Too chaotic and random,-50,160,20","Savannah","A strange collage made by a child. Do not like the colored face of the bear.,-29,200,20","Jordan","Not interested at all,-15,20,20","0"
"19029","","survey-text","108","737084","0.0-108.0-0.0","AU34T9OMHN4Z4","","","","{""Q0"":""Looks interesting with the splashes of color""}","","","","","","","","","","","","","","","","","","","","","","",""
"3447.6999999955297","","image-slider-response","109","740533","0.0-109.0","AU34T9OMHN4Z4","","","","","-3","","","","","","","","","","","","","","","","","","","","","",""
"null","","image-button-response","110","745536","0.0-110.0","AU34T9OMHN4Z4","img_art/11.jpg","null","","","","","","","","","","","","","","","","","","","","","","","","",""
"999","","image-button-response","111","746538","0.0-111.0","AU34T9OMHN4Z4","img_art/11.jpg","3","","","","","","","","","","","","","","","","","","","","","","","","",""
"2132","","image-button-response","112","748672","0.0-112.0-0.0","AU34T9OMHN4Z4","img_art/11.jpg","4","","","","","","","","","","","","","","","","","","","","","","","","",""
"4223","","image-button-response","113","752896","0.0-113.0-0.0","AU34T9OMHN4Z4","img_art/11.jpg","0","","","","","","","","","","","","","","","","","","","","","","","","",""
"null","","html-keyboard-response","114","753398","0.0-114.0","AU34T9OMHN4Z4","<p style=""font-size: 48px;"">+</p>","","","","","null","allTrialResponses","500","1","10","img_art/11.jpg","-3","Looks interesting with the splashes of color","Kaitlyn,Julia,Melissa,Katie,Savannah,Jordan","Interesting use of color,9,80,20","this looks like a beautiful rainy day in a hellish urban mountain city,14,40,20","reminds me of home,5,240,20","Dark and dreary. Makes me think of rain/water. I see grey clouds and high waves. Looks unsettling.,-20,160,20","Not quite as abstract as I'd like- It's clearly a dingy city.,-18,200,20","Oh, I love this one, it says to me that life is very busy,50,20,20","Katie","Dark and dreary. Makes me think of rain/water. I see grey clouds and high waves. Looks unsettling.,-20,160,20","Savannah","Not quite as abstract as I'd like- It's clearly a dingy city.,-18,200,20","Kaitlyn","Interesting use of color,9,80,20","0"
"3975","","survey-text","115","757378","0.0-115.0-0.0","AU34T9OMHN4Z4","","","","{""Q0"":""our""}","","","","","","","","","","","","","","","","","","","","","","",""
"34070","","survey-text","116","791449","0.0-116.0-0.0","AU34T9OMHN4Z4","","","","{""Q0"":""The colors don't quite make sense together the way they are painted""}","","","","","","","","","","","","","","","","","","","","","","",""
"2228.7000000029802","","image-slider-response","117","793679","0.0-117.0","AU34T9OMHN4Z4","","","","","-26","","","","","","","","","","","","","","","","","","","","","",""
"null","","image-button-response","118","798682","0.0-118.0","AU34T9OMHN4Z4","img_art/27.jpg","null","","","","","","","","","","","","","","","","","","","","","","","","",""
"3759","","image-button-response","119","802444","0.0-119.0","AU34T9OMHN4Z4","img_art/27.jpg","4","","","","","","","","","","","","","","","","","","","","","","","","",""
"1804","","image-button-response","120","804250","0.0-120.0-0.0","AU34T9OMHN4Z4","img_art/27.jpg","5","","","","","","","","","","","","","","","","","","","","","","","","",""
"7492","","image-button-response","121","811744","0.0-121.0-0.0","AU34T9OMHN4Z4","img_art/27.jpg","2","","","","","","","","","","","","","","","","","","","","","","","","",""
"null","","html-keyboard-response","122","812247","0.0-122.0","AU34T9OMHN4Z4","<p style=""font-size: 48px;"">+</p>","","","","","null","allTrialResponses","500","1","11","img_art/27.jpg","-26","The colors don't quite make sense together the way they are painted","Kaitlyn,Victoria,Natalie,Katie,Savannah,Danielle","The variation of orange is nice,9,80,20","reminds me of fall,33,400,20","also gives me anxiety,-21,400,20","Fire, explosion. Red/orange colors are fire/explosion. White is smoke. Makes me worried/scared/anxious,-20,160,20","An abstract piece with such lifeless colors.,-26,200,20","Looks a bit like a child's project with unsatisfying colors,-31,340,20","Savannah","An abstract piece with such lifeless colors.,-26,200,20","Danielle","Looks a bit like a child's project with unsatisfying colors,-31,340,20","Natalie","also gives me anxiety,-21,400,20","0"
"25607","","survey-text","123","837861","0.0-123.0-0.0","AU34T9OMHN4Z4","","","","{""Q0"":""Looks like a murder scene and is anxiety inducing""}","","","","","","","","","","","","","","","","","","","","","","",""
"3075.2000000029802","","image-slider-response","124","840938","0.0-124.0","AU34T9OMHN4Z4","","","","","-50","","","","","","","","","","","","","","","","","","","","","",""
"null","","image-button-response","125","845940","0.0-125.0","AU34T9OMHN4Z4","img_art/3.jpg","null","","","","","","","","","","","","","","","","","","","","","","","","",""
"433","","image-button-response","126","846376","0.0-126.0","AU34T9OMHN4Z4","img_art/3.jpg","1","","","","","","","","","","","","","","","","","","","","","","","","",""
"3512","","image-button-response","127","849890","0.0-127.0-0.0","AU34T9OMHN4Z4","img_art/3.jpg","3","","","","","","","","","","","","","","","","","","","","","","","","",""
"788","","image-button-response","128","850680","0.0-128.0-0.0","AU34T9OMHN4Z4","img_art/3.jpg","4","","","","","","","","","","","","","","","","","","","","","","","","",""
"null","","html-keyboard-response","129","851682","0.0-129.0","AU34T9OMHN4Z4","<p style=""font-size: 48px;"">+</p>","","","","","null","allTrialResponses","1000","1","12","img_art/3.jpg","-50","Looks like a murder scene and is anxiety inducing","Briana,Jennifer,Natalie,Kelly,Savannah,Danielle","Sharp peaks look like sharp teeth,-37,400,20","This looks like something a child created in 5 minutes.,-50,380,20","my response to the picture is a lot of red, danger,,-21,400,20","Reminds me of blood.,-28,220,20","Completely incomprehensible.,-33,200,20","Looks like it was painted with blood, which I'm aware is an art style, but it just looks messy.,-20,340,20","Jennifer","This looks like something a child created in 5 minutes.,-50,380,20","Kelly","Reminds me of blood.,-28,220,20","Savannah","Completely incomprehensible.,-33,200,20","0"
"30001","","survey-text","130","881690","0.0-130.0-0.0","AU34T9OMHN4Z4","","","","{""Q0"":""Looks like a warrior on a horse the colors aren't bad""}","","","","","","","","","","","","","","","","","","","","","","",""
"2990.89999999851","","image-slider-response","131","884681","0.0-131.0","AU34T9OMHN4Z4","","","","","22","","","","","","","","","","","","","","","","","","","","","",""
"null","","image-button-response","132","889683","0.0-132.0","AU34T9OMHN4Z4","img_art/18.jpg","null","","","","","","","","","","","","","","","","","","","","","","","","",""
"1273","","image-button-response","133","890959","0.0-133.0","AU34T9OMHN4Z4","img_art/18.jpg","3","","","","","","","","","","","","","","","","","","","","","","","","",""
"2698","","image-button-response","134","893658","0.0-134.0-0.0","AU34T9OMHN4Z4","img_art/18.jpg","4","","","","","","","","","","","","","","","","","","","","","","","","",""
"929","","image-button-response","135","894588","0.0-135.0-0.0","AU34T9OMHN4Z4","img_art/18.jpg","2","","","","","","","","","","","","","","","","","","","","","","","","",""
"null","","html-keyboard-response","136","896091","0.0-136.0","AU34T9OMHN4Z4","<p style=""font-size: 48px;"">+</p>","","","","","null","allTrialResponses","1500","1","13","img_art/18.jpg","22","Looks like a warrior on a horse the colors aren't bad","Kelsey,Jennifer,Kristen,Kelly,Savannah,Emma","its messy, it seems angry,-21,240,20","I have no strong feelings about this image,1,380,20","pegssus going into battle,25,280,20","It's interesting. I'm not sure how I feel about it, but i enjoy the ghostly apparitions.,10,220,20","Accents make this piece.,21,200,20","Vaguely creepy ........,-20,60,20","Kelly","It's interesting. I'm not sure how I feel about it, but i enjoy the ghostly apparitions.,10,220,20","Savannah","Accents make this piece.,21,200,20","Kristen","pegssus going into battle,25,280,20","0"
"15605","","survey-text","137","911706","0.0-137.0-0.0","AU34T9OMHN4Z4","","","","{""Q0"":""Reminds me of fall""}","","","","","","","","","","","","","","","","","","","","","","",""
"1795","","image-slider-response","138","913502","0.0-138.0","AU34T9OMHN4Z4","","","","","8","","","","","","","","","","","","","","","","","","","","","",""
"4229","","image-button-response","139","918504","0.0-139.0","AU34T9OMHN4Z4","img_art/17.jpg","0","","","","","","","","","","","","","","","","","","","","","","","","",""
"639","","image-button-response","140","919146","0.0-140.0","AU34T9OMHN4Z4","img_art/17.jpg","0","","","","","","","","","","","","","","","","","","","","","","","","",""
"730","","image-button-response","141","919876","0.0-141.0-0.0","AU34T9OMHN4Z4","img_art/17.jpg","2","","","","","","","","","","","","","","","","","","","","","","","","",""
"4803","","image-button-response","142","924681","0.0-142.0-0.0","AU34T9OMHN4Z4","img_art/17.jpg","3","","","","","","","","","","","","","","","","","","","","","","","","",""
"null","","html-keyboard-response","143","925184","0.0-143.0","AU34T9OMHN4Z4","<p style=""font-size: 48px;"">+</p>","","","","","null","allTrialResponses","500","1","14","img_art/17.jpg","8","Reminds me of fall","Mariah,Lindsey,Kristen,Kelly,Savannah,Amy","It feels like nature overtaking civilization.,21,140,20","Pretty composition and I like the colors.,20,400,20","calm, tranquil, happy,50,280,20","I really like this, especially the tree.,23,220,20","Not even abstract to me, very clear meaning.,44,200,20","peaceful. contemplative. balanced. old,10,220,20","Mariah","It feels like nature overtaking civilization.,21,140,20","Kristen","calm, tranquil, happy,50,280,20","Kelly","I really like this, especially the tree.,23,220,20","0"
"25859","","survey-text","144","951054","0.0-144.0-0.0","AU34T9OMHN4Z4","","","","{""Q0"":""Looks dull and boring""}","","","","","","","","","","","","","","","","","","","","","","",""
"2309","","image-slider-response","145","953364","0.0-145.0","AU34T9OMHN4Z4","","","","","-50","","","","","","","","","","","","","","","","","","","","","",""
"4830","","image-button-response","146","958366","0.0-146.0","AU34T9OMHN4Z4","img_art/10.jpg","1","","","","","","","","","","","","","","","","","","","","","","","","",""
"1951","","image-button-response","147","960320","0.0-147.0","AU34T9OMHN4Z4","img_art/10.jpg","5","","","","","","","","","","","","","","","","","","","","","","","","",""
"2266","","image-button-response","148","962588","0.0-148.0-0.0","AU34T9OMHN4Z4","img_art/10.jpg","1","","","","","","","","","","","","","","","","","","","","","","","","",""
"8224","","image-button-response","149","970814","0.0-149.0-0.0","AU34T9OMHN4Z4","img_art/10.jpg","0","","","","","","","","","","","","","","","","","","","","","","","","",""
"null","","html-keyboard-response","150","971815","0.0-150.0","AU34T9OMHN4Z4","<p style=""font-size: 48px;"">+</p>","","","","","null","allTrialResponses","1000","1","15","img_art/10.jpg","-50","Looks dull and boring","Mariah,Sara,Kristen,Kelly,Destiny,Alyssa","The colors and shapes are soothing but also disconcerting.,21,140,20","I don't like the colors,-20,160,20","music, serenity, love,33,280,20","I cant tell what this is supposed to be, but I enjoy the simplicity of it.,28,220,20","The more I look the more I like. Reminds me of a rollercoaster and a war scene. A lot going on which is unnerving, like a rollercoaster but still fun,22,360,20","Bleak and uninteresting,-10,160,20","Alyssa","Bleak and uninteresting,-10,160,20","Sara","I don't like the colors,-20,160,20","Mariah","The colors and shapes are soothing but also disconcerting.,21,140,20","0"
"4200","","survey-text","151","976042","0.0-151.0-0.0","AU34T9OMHN4Z4","","","","{""Q0"":""course""}","","","","","","","","","","","","","","","","","","","","","","",""
"17567","","survey-text","152","993609","0.0-152.0-0.0","AU34T9OMHN4Z4","","","","{""Q0"":""The colors are very dull and uninteresting""}","","","","","","","","","","","","","","","","","","","","","","",""
"23435.19999999553","","image-slider-response","153","1017046","0.0-153.0","AU34T9OMHN4Z4","","","","","-50","","","","","","","","","","","","","","","","","","","","","",""
"null","","image-button-response","154","1022048","0.0-154.0","AU34T9OMHN4Z4","img_art/28.jpg","null","","","","","","","","","","","","","","","","","","","","","","","","",""
"452","","image-button-response","155","1022500","0.0-155.0","AU34T9OMHN4Z4","img_art/28.jpg","2","","","","","","","","","","","","","","","","","","","","","","","","",""
"1906","","image-button-response","156","1024408","0.0-156.0-0.0","AU34T9OMHN4Z4","img_art/28.jpg","5","","","","","","","","","","","","","","","","","","","","","","","","",""
"3594","","image-button-response","157","1028004","0.0-157.0-0.0","AU34T9OMHN4Z4","img_art/28.jpg","1","","","","","","","","","","","","","","","","","","","","","","","","",""
"null","","html-keyboard-response","158","1029010","0.0-158.0","AU34T9OMHN4Z4","<p style=""font-size: 48px;"">+</p>","","","","","null","allTrialResponses","1000","1","16","img_art/28.jpg","-50","The colors are very dull and uninteresting","Mariah,Sara,Alicia,Elizabeth,Makayla,Alyssa","Colors are pleasing, shapes are vaguely unpleasant. Kidneys at a smoky bar.,5,140,20","This swirly drawing i snot my type I get confused and dizzy,-20,160,20","bland busy ugly,-31,120,20","Not really exciting,23,20,20","The earthy colors smeared around looks like prison food tray,-17,80,20","Not a fan of the bleak and dreary colors,-10,160,20","Alicia","bland busy ugly,-31,120,20","Alyssa","Not a fan of the bleak and dreary colors,-10,160,20","Sara","This swirly drawing i snot my type I get confused and dizzy,-20,160,20","0"
"21098","","survey-text","159","1050119","0.0-159.0-0.0","AU34T9OMHN4Z4","","","","{""Q0"":""Too much going on in the background""}","","","","","","","","","","","","","","","","","","","","","","",""
"3953.39999999851","","image-slider-response","160","1054074","0.0-160.0","AU34T9OMHN4Z4","","","","","-50","","","","","","","","","","","","","","","","","","","","","",""
"null","","image-button-response","161","1059077","0.0-161.0","AU34T9OMHN4Z4","img_art/23.jpg","null","","","","","","","","","","","","","","","","","","","","","","","","",""
"1817","","image-button-response","162","1060896","0.0-162.0","AU34T9OMHN4Z4","img_art/23.jpg","2","","","","","","","","","","","","","","","","","","","","","","","","",""
"1520","","image-button-response","163","1062418","0.0-163.0-0.0","AU34T9OMHN4Z4","img_art/23.jpg","0","","","","","","","","","","","","","","","","","","","","","","","","",""
"6016","","image-button-response","164","1068437","0.0-164.0-0.0","AU34T9OMHN4Z4","img_art/23.jpg","5","","","","","","","","","","","","","","","","","","","","","","","","",""
"null","","html-keyboard-response","165","1068939","0.0-165.0","AU34T9OMHN4Z4","<p style=""font-size: 48px;"">+</p>","","","","","null","allTrialResponses","500","1","17","img_art/23.jpg","-50","Too much going on in the background","Erin,Sara,Alicia,Jenna,Anna,Alyssa","Confetti dancer,-7,120,20","Beautiful color scheme,21,160,20","No reactions, childish.,-19,120,20","awesome colors. love the white drawing the eye to the center. oddly comforting.,50,360,20","I love the colors and the contrast.,50,300,20","Very bright and eye catching.The White silhouettes remind me of people celebrating.,31,160,20","Alicia","No reactions, childish.,-19,120,20","Erin","Confetti dancer,-7,120,20","Alyssa","Very bright and eye catching.The White silhouettes remind me of people celebrating.,31,160,20","0"
"25336","","survey-text","166","1094283","0.0-166.0-0.0","AU34T9OMHN4Z4","","","","{""Q0"":""Reminds me of the beach or playing in the sand.""}","","","","","","","","","","","","","","","","","","","","","","",""
"2721","","image-slider-response","167","1097005","0.0-167.0","AU34T9OMHN4Z4","","","","","15","","","","","","","","","","","","","","","","","","","","","",""
"null","","image-button-response","168","1102008","0.0-168.0","AU34T9OMHN4Z4","img_art/7.jpg","null","","","","","","","","","","","","","","","","","","","","","","","","",""
"2570","","image-button-response","169","1104579","0.0-169.0","AU34T9OMHN4Z4","img_art/7.jpg","2","","","","","","","","","","","","","","","","","","","","","","","","",""
"3941","","image-button-response","170","1108521","0.0-170.0-0.0","AU34T9OMHN4Z4","img_art/7.jpg","5","","","","","","","","","","","","","","","","","","","","","","","","",""
"6547","","image-button-response","171","1115070","0.0-171.0-0.0","AU34T9OMHN4Z4","img_art/7.jpg","0","","","","","","","","","","","","","","","","","","","","","","","","",""
"null","","html-keyboard-response","172","1116572","0.0-172.0","AU34T9OMHN4Z4","<p style=""font-size: 48px;"">+</p>","","","","","null","allTrialResponses","1500","1","18","img_art/7.jpg","15","Reminds me of the beach or playing in the sand.","Erin,Michaela,Alicia,Margaret,Diana,Alyssa","Color is bland and looks damaged,-37,120,20","It looks like maybe some seeds?,14,260,20","I don't get it. looks like a picture of the ground.,-42,120,20","looks like a close up of irritated skin under a microscope,-49,100,20","This piece reminds me of ants and it makes my skin crawl.,-37,380,20","It looks like someone took a picture of a muddy ground and called it art.,-41,160,20","Alicia","I don't get it. looks like a picture of the ground.,-42,120,20","Alyssa","It looks like someone took a picture of a muddy ground and called it art.,-41,160,20","Erin","Color is bland and looks damaged,-37,120,20","0"
"35159","","survey-text","173","1151745","0.0-173.0-0.0","AU34T9OMHN4Z4","","","","{""Q0"":""The colors are too bright, reminds me of something for halloween""}","","","","","","","","","","","","","","","","","","","","","","",""
"5957.39999999851","","image-slider-response","174","1157704","0.0-174.0","AU34T9OMHN4Z4","","","","","-3","","","","","","","","","","","","","","","","","","","","","",""
"4282","","image-button-response","175","1162707","0.0-175.0","AU34T9OMHN4Z4","img_art/25.jpg","0","","","","","","","","","","","","","","","","","","","","","","","","",""
"640","","image-button-response","176","1163348","0.0-176.0","AU34T9OMHN4Z4","img_art/25.jpg","0","","","","","","","","","","","","","","","","","","","","","","","","",""
"7558","","image-button-response","177","1170908","0.0-177.0-0.0","AU34T9OMHN4Z4","img_art/25.jpg","5","","","","","","","","","","","","","","","","","","","","","","","","",""
"2360","","image-button-response","178","1173270","0.0-178.0-0.0","AU34T9OMHN4Z4","img_art/25.jpg","1","","","","","","","","","","","","","","","","","","","","","","","","",""
"null","","html-keyboard-response","179","1173773","0.0-179.0","AU34T9OMHN4Z4","<p style=""font-size: 48px;"">+</p>","","","","","null","allTrialResponses","500","1","19","img_art/25.jpg","-3","The colors are too bright, reminds me of something for halloween","Erin,Isabella,Alicia,Brooke,Kylie,Alyssa","Looks like glow in the dark halloween decoration,-38,120,20","I love the green and the figure is black but the green makes it pop,29,280,20","death. childish nightmare.,-29,120,20","Like the color, but what is that thing.,-10,60,20","Egyptian heiroglyphics and painting,15,300,20","Dark silhouette against the murky background Illicites an ominous feeling. Don't really like it.,-20,160,20","Erin","Looks like glow in the dark halloween decoration,-38,120,20","Alyssa","Dark silhouette against the murky background Illicites an ominous feeling. Don't really like it.,-20,160,20","Isabella","I love the green and the figure is black but the green makes it pop,29,280,20","0"
"26297","","survey-text","180","1200074","0.0-180.0-0.0","AU34T9OMHN4Z4","","","","{""Q0"":""The colors on the edge are ugly and it looks like someone just threw ketchup across it""}","","","","","","","","","","","","","","","","","","","","","","",""
"4156.80000000447","","image-slider-response","181","1204231","0.0-181.0","AU34T9OMHN4Z4","","","","","-50","","","","","","","","","","","","","","","","","","","","","",""
"null","","image-button-response","182","1209234","0.0-182.0","AU34T9OMHN4Z4","img_art/29.jpg","null","","","","","","","","","","","","","","","","","","","","","","","","",""
"2306","","image-button-response","183","1211542","0.0-183.0","AU34T9OMHN4Z4","img_art/29.jpg","3","","","","","","","","","","","","","","","","","","","","","","","","",""
"1076","","image-button-response","184","1212620","0.0-184.0-0.0","AU34T9OMHN4Z4","img_art/29.jpg","1","","","","","","","","","","","","","","","","","","","","","","","","",""
"2778","","image-button-response","185","1215400","0.0-185.0-0.0","AU34T9OMHN4Z4","img_art/29.jpg","0","","","","","","","","","","","","","","","","","","","","","","","","",""
"null","","html-keyboard-response","186","1216401","0.0-186.0","AU34T9OMHN4Z4","<p style=""font-size: 48px;"">+</p>","","","","","null","allTrialResponses","1000","1","20","img_art/29.jpg","-50","The colors on the edge are ugly and it looks like someone just threw ketchup across it","Erin,Isabella,Sarah,Angela,Hailey,Alyssa","Red X is scary, like the bricks,7,120,20","Darkness and torment,-50,280,20","it's interesting but not my style,9,180,20","I would like this piece better without the red X across it,-10,260,20","a hot fireplace with things to burn. warm,12,200,20","Its interesting although doesnt illicit any strong emotions from me,10,160,20","Angela","I would like this piece better without the red X across it,-10,260,20","Isabella","Darkness and torment,-50,280,20","Erin","Red X is scary, like the bricks,7,120,20","0"
"3588","","survey-text","187","1220003","0.0-187.0-0.0","AU34T9OMHN4Z4","","","","{""Q0"":""we""}","","","","","","","","","","","","","","","","","","","","","","",""
"51044","","survey-text","188","1271049","0.0-188.0-0.0","AU34T9OMHN4Z4","","","","{""Q0"":""The brush strokes are interesting""}","","","","","","","","","","","","","","","","","","","","","","",""
"2577","","image-slider-response","189","1273627","0.0-189.0","AU34T9OMHN4Z4","","","","","7","","","","","","","","","","","","","","","","","","","","","",""
"4677","","image-button-response","190","1278630","0.0-190.0","AU34T9OMHN4Z4","img_art/30.jpg","0","","","","","","","","","","","","","","","","","","","","","","","","",""
"537","","image-button-response","191","1279170","0.0-191.0","AU34T9OMHN4Z4","img_art/30.jpg","0","","","","","","","","","","","","","","","","","","","","","","","","",""
"5733","","image-button-response","192","1284904","0.0-192.0-0.0","AU34T9OMHN4Z4","img_art/30.jpg","4","","","","","","","","","","","","","","","","","","","","","","","","",""
"4803","","image-button-response","193","1289708","0.0-193.0-0.0","AU34T9OMHN4Z4","img_art/30.jpg","2","","","","","","","","","","","","","","","","","","","","","","","","",""
"null","","html-keyboard-response","194","1291210","0.0-194.0","AU34T9OMHN4Z4","<p style=""font-size: 48px;"">+</p>","","","","","null","allTrialResponses","1500","1","21","img_art/30.jpg","7","The brush strokes are interesting","Erin,Isabella,Chloe,Angela,Christina,Brianna","Layers are interesting,22,120,20","I like the back but the red lines in the front distress me,-7,280,20","Muddy, sloppy, unprofessional,-44,220,20","Really don't like this piece. It feels very lazy to me.,-31,260,20","it looks like some thing I could make it my garage,-18,240,20","I like the fact that it's a painting.,21,20,20","Erin","Layers are interesting,22,120,20","Christina","it looks like some thing I could make it my garage,-18,240,20","Chloe","Muddy, sloppy, unprofessional,-44,220,20","0"
"28603","","survey-text","195","1319822","0.0-195.0-0.0","AU34T9OMHN4Z4","","","","{""Q0"":""Looks like it is supposed to be a city scape but the brush strokes are too wide""}","","","","","","","","","","","","","","","","","","","","","","",""
"27076.69999999553","","image-slider-response","196","1346900","0.0-196.0","AU34T9OMHN4Z4","","","","","-20","","","","","","","","","","","","","","","","","","","","","",""
"null","","image-button-response","197","1351903","0.0-197.0","AU34T9OMHN4Z4","img_art/19.jpg","null","","","","","","","","","","","","","","","","","","","","","","","","",""
"2996","","image-button-response","198","1354902","0.0-198.0","AU34T9OMHN4Z4","img_art/19.jpg","2","","","","","","","","","","","","","","","","","","","","","","","","",""
"7152","","image-button-response","199","1362056","0.0-199.0-0.0","AU34T9OMHN4Z4","img_art/19.jpg","1","","","","","","","","","","","","","","","","","","","","","","","","",""
"1748","","image-button-response","200","1363806","0.0-200.0-0.0","AU34T9OMHN4Z4","img_art/19.jpg","3","","","","","","","","","","","","","","","","","","","","","","","","",""
"null","","html-keyboard-response","201","1365308","0.0-201.0","AU34T9OMHN4Z4","<p style=""font-size: 48px;"">+</p>","","","","","null","allTrialResponses","1500","1","22","img_art/19.jpg","-20","Looks like it is supposed to be a city scape but the brush strokes are too wide","Erin,Amber,Chloe,Gabriela,Christina,Tiffany","Childish music hall,-20,120,20","Reminds me of a busy village.,16,200,20","The use of space isn't my favorite.,-20,220,20","it looks messy and non-unique.,-9,140,20","i like the colors and the way it looks like an actual scene,18,240,20","I feel a little anxious and happy. I'm about to walk into a market and any number of treasures could be found,14,360,20","Chloe","The use of space isn't my favorite.,-20,220,20","Amber","Reminds me of a busy village.,16,200,20","Gabriela","it looks messy and non-unique.,-9,140,20","0"
"22909","","survey-text","202","1388232","0.0-202.0-0.0","AU34T9OMHN4Z4","","","","{""Q0"":""It looks lazy and boring and the colors are dull and icky""}","","","","","","","","","","","","","","","","","","","","","","",""
"3274.6999999955297","","image-slider-response","203","1391508","0.0-203.0","AU34T9OMHN4Z4","","","","","-50","","","","","","","","","","","","","","","","","","","","","",""
"null","","image-button-response","204","1396510","0.0-204.0","AU34T9OMHN4Z4","img_art/4.jpg","null","","","","","","","","","","","","","","","","","","","","","","","","",""
"892","","image-button-response","205","1397404","0.0-205.0","AU34T9OMHN4Z4","img_art/4.jpg","0","","","","","","","","","","","","","","","","","","","","","","","","",""
"5944","","image-button-response","206","1403349","0.0-206.0-0.0","AU34T9OMHN4Z4","img_art/4.jpg","5","","","","","","","","","","","","","","","","","","","","","","","","",""
"7997","","image-button-response","207","1411348","0.0-207.0-0.0","AU34T9OMHN4Z4","img_art/4.jpg","2","","","","","","","","","","","","","","","","","","","","","","","","",""
"null","","html-keyboard-response","208","1411849","0.0-208.0","AU34T9OMHN4Z4","<p style=""font-size: 48px;"">+</p>","","","","","null","allTrialResponses","500","1","23","img_art/4.jpg","-50","It looks lazy and boring and the colors are dull and icky","Jessica,Amber,Chloe,Gabriela,Katherine,Caitlin","Looks like they just smothered on some paint and called it a day.,-17,400,20","I like the bold style.,10,200,20","Great movement but don't love the yellowy tones.,31,220,20","The bold colors are exciting. It looks like a statue on someone's mantle.,18,140,20","I like how many different ways there are to interpret this.,27,120,20","They give out trophies now for fighting with brass knuckles?,-20,80,20","Jessica","Looks like they just smothered on some paint and called it a day.,-17,400,20","Caitlin","They give out trophies now for fighting with brass knuckles?,-20,80,20","Chloe","Great movement but don't love the yellowy tones.,31,220,20","0"
"23565","","survey-text","209","1435420","0.0-209.0-0.0","AU34T9OMHN4Z4","","","","{""Q0"":""I like the brighter colors but it doesn't really speak to me""}","","","","","","","","","","","","","","","","","","","","","","",""
"2536.89999999851","","image-slider-response","210","1437958","0.0-210.0","AU34T9OMHN4Z4","","","","","-16","","","","","","","","","","","","","","","","","","","","","",""
"null","","image-button-response","211","1442960","0.0-211.0","AU34T9OMHN4Z4","img_art/12.jpg","null","","","","","","","","","","","","","","","","","","","","","","","","",""
"3538","","image-button-response","212","1446500","0.0-212.0","AU34T9OMHN4Z4","img_art/12.jpg","4","","","","","","","","","","","","","","","","","","","","","","","","",""
"3170","","image-button-response","213","1449672","0.0-213.0-0.0","AU34T9OMHN4Z4","img_art/12.jpg","3","","","","","","","","","","","","","","","","","","","","","","","","",""
"1302","","image-button-response","214","1450976","0.0-214.0-0.0","AU34T9OMHN4Z4","img_art/12.jpg","1","","","","","","","","","","","","","","","","","","","","","","","","",""
"null","","html-keyboard-response","215","1451977","0.0-215.0","AU34T9OMHN4Z4","<p style=""font-size: 48px;"">+</p>","","","","","null","allTrialResponses","1000","1","24","img_art/12.jpg","-16","I like the brighter colors but it doesn't really speak to me","Jessica,Megan,Chloe,Nicole,Angelica,Caitlin","I like this concept.,11,400,20","Blocky windowed, safe and selfish,-41,200,20","Nice hallway art for a hotel.,21,220,20","I like all the squares and the colors but it feels too cluttered to me,20,20,20","It's strange looking and unappealing.,-4,280,20","Just wish it was more colorful.,20,80,20","Angelica","It's strange looking and unappealing.,-4,280,20","Nicole","I like all the squares and the colors but it feels too cluttered to me,20,20,20","Megan","Blocky windowed, safe and selfish,-41,200,20","0"
"24399","","survey-text","216","1476390","0.0-216.0-0.0","AU34T9OMHN4Z4","","","","{""Q0"":""I like the background, but then it looks like paint was thrown on""}","","","","","","","","","","","","","","","","","","","","","","",""
"4812.89999999851","","image-slider-response","217","1481204","0.0-217.0","AU34T9OMHN4Z4","","","","","2","","","","","","","","","","","","","","","","","","","","","",""
"null","","image-button-response","218","1486205","0.0-218.0","AU34T9OMHN4Z4","img_art/13.jpg","null","","","","","","","","","","","","","","","","","","","","","","","","",""
"4860","","image-button-response","219","1491066","0.0-219.0","AU34T9OMHN4Z4","img_art/13.jpg","2","","","","","","","","","","","","","","","","","","","","","","","","",""
"3043","","image-button-response","220","1494110","0.0-220.0-0.0","AU34T9OMHN4Z4","img_art/13.jpg","5","","","","","","","","","","","","","","","","","","","","","","","","",""
"2945","","image-button-response","221","1497056","0.0-221.0-0.0","AU34T9OMHN4Z4","img_art/13.jpg","4","","","","","","","","","","","","","","","","","","","","","","","","",""
"null","","html-keyboard-response","222","1497560","0.0-222.0","AU34T9OMHN4Z4","<p style=""font-size: 48px;"">+</p>","","","","","null","allTrialResponses","500","1","25","img_art/13.jpg","2","I like the background, but then it looks like paint was thrown on","Kathryn,Megan,Leah,Nicole,Angelica,Brittany","Reminds me of depression anxiety, but negativity is dampened by motion. It's trying to release itself through expression.,-10,140,20","Average overly symmetrical safe,-26,200,20","Like it a lot, reminds me of rainy day on glass,43,360,20","It's pretty basic but it makes me feel like I'm looking at the ocean,30,20,20","It's too violent looking and there's too much contrast between the white/black.,-21,280,20","Not really a fan of ""splash"" art.,-20,40,20","Leah","Like it a lot, reminds me of rainy day on glass,43,360,20","Brittany","Not really a fan of ""splash"" art.,-20,40,20","Angelica","It's too violent looking and there's too much contrast between the white/black.,-21,280,20","0"
"4414","","survey-text","223","1501986","0.0-223.0-0.0","AU34T9OMHN4Z4","","","","{""Q0"":""table""}","","","","","","","","","","","","","","","","","","","","","","",""
"30778","","survey-text","224","1532765","0.0-224.0-0.0","AU34T9OMHN4Z4","","","","{""Q0"":""The colors aren't bad, reminds me of a bridge over water""}","","","","","","","","","","","","","","","","","","","","","","",""
"2777.2000000029802","","image-slider-response","225","1535544","0.0-225.0","AU34T9OMHN4Z4","","","","","-15","","","","","","","","","","","","","","","","","","","","","",""
"null","","image-button-response","226","1540546","0.0-226.0","AU34T9OMHN4Z4","img_art/22.jpg","null","","","","","","","","","","","","","","","","","","","","","","","","",""
"2179","","image-button-response","227","1542725","0.0-227.0","AU34T9OMHN4Z4","img_art/22.jpg","2","","","","","","","","","","","","","","","","","","","","","","","","",""
"2663","","image-button-response","228","1545390","0.0-228.0-0.0","AU34T9OMHN4Z4","img_art/22.jpg","4","","","","","","","","","","","","","","","","","","","","","","","","",""
"1404","","image-button-response","229","1546796","0.0-229.0-0.0","AU34T9OMHN4Z4","img_art/22.jpg","5","","","","","","","","","","","","","","","","","","","","","","","","",""
"null","","html-keyboard-response","230","1547297","0.0-230.0","AU34T9OMHN4Z4","<p style=""font-size: 48px;"">+</p>","","","","","null","allTrialResponses","500","1","26","img_art/22.jpg","-15","The colors aren't bad, reminds me of a bridge over water","Heather,Miranda,Leah,Erika,Angelica,Brittany","i think its pretty but im not sure what i see,1,260,20","Its very warm, it reminds of someone not liking their painting so they destoryed it,26,320,20","Pretty colors but too blocky for me,-19,360,20","Beautiful forms, using color to define shape,14,100,20","It's bland and ugly.,-21,280,20","It reminds me of sunsets and dusks.,22,40,20","Leah","Pretty colors but too blocky for me,-19,360,20","Angelica","It's bland and ugly.,-21,280,20","Brittany","It reminds me of sunsets and dusks.,22,40,20","0"
"18150","","survey-text","231","1565451","0.0-231.0-0.0","AU34T9OMHN4Z4","","","","{""Q0"":""The orange is too bright and it looks lazy""}","","","","","","","","","","","","","","","","","","","","","","",""
"2985.10000000149","","image-slider-response","232","1568437","0.0-232.0","AU34T9OMHN4Z4","","","","","-50","","","","","","","","","","","","","","","","","","","","","",""
"null","","image-button-response","233","1573440","0.0-233.0","AU34T9OMHN4Z4","img_art/6.jpg","null","","","","","","","","","","","","","","","","","","","","","","","","",""
"2304","","image-button-response","234","1575745","0.0-234.0","AU34T9OMHN4Z4","img_art/6.jpg","2","","","","","","","","","","","","","","","","","","","","","","","","",""
"6049","","image-button-response","235","1581795","0.0-235.0-0.0","AU34T9OMHN4Z4","img_art/6.jpg","1","","","","","","","","","","","","","","","","","","","","","","","","",""
"1013","","image-button-response","236","1582809","0.0-236.0-0.0","AU34T9OMHN4Z4","img_art/6.jpg","0","","","","","","","","","","","","","","","","","","","","","","","","",""
"null","","html-keyboard-response","237","1584310","0.0-237.0","AU34T9OMHN4Z4","<p style=""font-size: 48px;"">+</p>","","","","","null","allTrialResponses","1500","1","27","img_art/6.jpg","-50","The orange is too bright and it looks lazy","Chelsea,Grace,Leah,Maria,Angelica,Brittany","It looks like one tall ugly bird.,-43,180,20","Growth in the desert?  Don't care for it very much.,-26,180,20","Boring, looks like a sad tree in wind,-37,360,20","intrigues me - not sure what I'm seeing, but I like combination of colour and texture,21,120,20","It feels sad but it's nice to look at.,4,280,20","It's alright. I imagined the peach from James and the Giant Peach.,1,40,20","Leah","Boring, looks like a sad tree in wind,-37,360,20","Grace","Growth in the desert?  Don't care for it very much.,-26,180,20","Chelsea","It looks like one tall ugly bird.,-43,180,20","0"
"35792","","survey-text","238","1620107","0.0-238.0-0.0","AU34T9OMHN4Z4","","","","{""Q0"":""I don't like how the colors mix and the splash of colors don't make sense""}","","","","","","","","","","","","","","","","","","","","","","",""
"3550.89999999851","","image-slider-response","239","1623659","0.0-239.0","AU34T9OMHN4Z4","","","","","-29","","","","","","","","","","","","","","","","","","","","","",""
"null","","image-button-response","240","1628661","0.0-240.0","AU34T9OMHN4Z4","img_art/1.jpg","null","","","","","","","","","","","","","","","","","","","","","","","","",""
"2752","","image-button-response","241","1631416","0.0-241.0","AU34T9OMHN4Z4","img_art/1.jpg","3","","","","","","","","","","","","","","","","","","","","","","","","",""
"2121","","image-button-response","242","1633538","0.0-242.0-0.0","AU34T9OMHN4Z4","img_art/1.jpg","4","","","","","","","","","","","","","","","","","","","","","","","","",""
"1529","","image-button-response","243","1635068","0.0-243.0-0.0","AU34T9OMHN4Z4","img_art/1.jpg","5","","","","","","","","","","","","","","","","","","","","","","","","",""
"null","","html-keyboard-response","244","1636569","0.0-244.0","AU34T9OMHN4Z4","<p style=""font-size: 48px;"">+</p>","","","","","null","allTrialResponses","1500","1","28","img_art/1.jpg","-29","I don't like how the colors mix and the splash of colors don't make sense","Chelsea,Grace,Leah,Breanna,Emily,Lauren","The colors are a little too intense.,1,180,20","Again, like the colors & abstractness.,29,180,20","Pretty intermeshing of colors, happy,32,360,20","Makes me feel confused,-6,380,20","Just a mess though a better mess than some others.,-11,40,20","This image doesn't invoke much in me.,0,340,20","Breanna","Makes me feel confused,-6,380,20","Emily","Just a mess though a better mess than some others.,-11,40,20","Lauren","This image doesn't invoke much in me.,0,340,20","0"
"14664","","survey-text","245","1651236","0.0-245.0-0.0","AU34T9OMHN4Z4","","","","{""Q0"":""Lovely picture of what looks like a waterfall""}","","","","","","","","","","","","","","","","","","","","","","",""
"3891.89999999851","","image-slider-response","246","1655129","0.0-246.0","AU34T9OMHN4Z4","","","","","50","","","","","","","","","","","","","","","","","","","","","",""
"null","","image-button-response","247","1660131","0.0-247.0","AU34T9OMHN4Z4","img_art/24.jpg","null","","","","","","","","","","","","","","","","","","","","","","","","",""
"1003","","image-button-response","248","1661136","0.0-248.0","AU34T9OMHN4Z4","img_art/24.jpg","5","","","","","","","","","","","","","","","","","","","","","","","","",""
"7049","","image-button-response","249","1668186","0.0-249.0-0.0","AU34T9OMHN4Z4","img_art/24.jpg","3","","","","","","","","","","","","","","","","","","","","","","","","",""
"3079","","image-button-response","250","1671266","0.0-250.0-0.0","AU34T9OMHN4Z4","img_art/24.jpg","0","","","","","","","","","","","","","","","","","","","","","","","","",""
"null","","html-keyboard-response","251","1672267","0.0-251.0","AU34T9OMHN4Z4","<p style=""font-size: 48px;"">+</p>","","","","","null","allTrialResponses","1000","1","29","img_art/24.jpg","50","Lovely picture of what looks like a waterfall","Haley,Madeline,Cynthia,Breanna,Emily,Lauren","Beautiful colors and texture,20,220,20","colors are good but the style is iffy,12,40,20","Interested in visiting this place,18,320,20","Like it, nice attention to details,31,380,20","It's not super high uality  but there is some skill and talent in it I see.,15,40,20","Invokes a strong sense of nature, since the piece can interpreted as a stream or an abstracted bird.,40,340,20","Lauren","Invokes a strong sense of nature, since the piece can interpreted as a stream or an abstracted bird.,40,340,20","Breanna","Like it, nice attention to details,31,380,20","Haley","Beautiful colors and texture,20,220,20","0"
"26902","","survey-text","252","1699188","0.0-252.0-0.0","AU34T9OMHN4Z4","","","","{""Q0"":""Colors are too  muddy in some spots, but like the black and white""}","","","","","","","","","","","","","","","","","","","","","","",""
"5016.9000000059605","","image-slider-response","253","1704206","0.0-253.0","AU34T9OMHN4Z4","","","","","2","","","","","","","","","","","","","","","","","","","","","",""
"null","","image-button-response","254","1709208","0.0-254.0","AU34T9OMHN4Z4","img_art/20.jpg","null","","","","","","","","","","","","","","","","","","","","","","","","",""
"1501","","image-button-response","255","1710712","0.0-255.0","AU34T9OMHN4Z4","img_art/20.jpg","2","","","","","","","","","","","","","","","","","","","","","","","","",""
"4981","","image-button-response","256","1715694","0.0-256.0-0.0","AU34T9OMHN4Z4","img_art/20.jpg","4","","","","","","","","","","","","","","","","","","","","","","","","",""
"1314","","image-button-response","257","1717010","0.0-257.0-0.0","AU34T9OMHN4Z4","img_art/20.jpg","5","","","","","","","","","","","","","","","","","","","","","","","","",""
"null","","html-keyboard-response","258","1718013","0.0-258.0","AU34T9OMHN4Z4","<p style=""font-size: 48px;"">+</p>","","","","","null","allTrialResponses","1000","1","30","img_art/20.jpg","2","Colors are too  muddy in some spots, but like the black and white","Haley,Laura,Michelle,Breanna,Madison,Lauren","I really enjoy the contrast of colors (blue/red/orange),30,220,20","very fluid and mysterious,37,320,20","Reminds me of Dali for some reason, whom I don't like,-7,280,20","Makes me feel impressed,9,380,20","This is not abstract art, it is representative.,0,60,20","I like how the image is depicting a scene.,10,340,20","Michelle","Reminds me of Dali for some reason, whom I don't like,-7,280,20","Madison","This is not abstract art, it is representative.,0,60,20","Lauren","I like how the image is depicting a scene.,10,340,20","0"
"3627","","image-button-response_instructions","259","1721660","0.0-259.0","AU34T9OMHN4Z4","","0","instructions","","","","","","","","","","","","","","","","","","","","","","","",""
"1626","","image-button-response","260","1723289","0.0-260.0","AU34T9OMHN4Z4","","0","","","","","","","","","","","","","","","","","","","","","","","","",""
