"rt","url","trial_type","trial_index","time_elapsed","internal_node_id","participant_id","stimulus","button_pressed","Name","responses","response","key_press","variableName","fixationTime","condition","trial","photo","subjectRating","subjectResponse","agentsNames","agent_1_Response","agent_2_Response","agent_3_Response","agent_4_Response","agent_5_Response","agent_6_Response","kept_1_name","kept_1_response","kept_2_name","kept_2_response","kept_3_name","kept_3_response","errorCounter"
"17616","external_page_harvard.html","external-html","0","17683","0.0-0.0","AUZNL6ARA1UEC","","","","","","","","","","","","","","","","","","","","","","","","","","",""
"1841","","image-button-response","1","19525","0.0-1.0","AUZNL6ARA1UEC","","0","","","","","","","","","","","","","","","","","","","","","","","","",""
"2241","","image-button-response","2","21771","0.0-2.0-0.0","AUZNL6ARA1UEC","","1","phone","","","","","","","","","","","","","","","","","","","","","","","",""
"4944","","survey-text","3","26717","0.0-3.0-0.0","AUZNL6ARA1UEC","","","","{""Q0"":""AUZNL6ARA1UEC""}","","","","","","","","","","","","","","","","","","","","","","",""
"6875","","image-button-response_instructions","4","33594","0.0-4.0","AUZNL6ARA1UEC","","0","instructions","","","","","","","","","","","","","","","","","","","","","","","",""
"9993","","image-button-response_instructions","5","43589","0.0-5.0","AUZNL6ARA1UEC","img_art/ins/popularity/ins1.png","0","instructions","","","","","","","","","","","","","","","","","","","","","","","",""
"5342","","image-button-response_instructions","6","48933","0.0-6.0","AUZNL6ARA1UEC","img_art/ins/popularity/ins2.png","0","instructions","","","","","","","","","","","","","","","","","","","","","","","",""
"4633","","image-button-response_instructions","7","53571","0.0-7.0","AUZNL6ARA1UEC","img_art/ins/popularity/ins2Extreme.png","0","instructions","","","","","","","","","","","","","","","","","","","","","","","",""
"18781","","image-button-response_instructions","8","72355","0.0-8.0","AUZNL6ARA1UEC","img_art/ins/popularity/ins3KEEPpop.PNG","0","instructions","","","","","","","","","","","","","","","","","","","","","","","",""
"3253","","image-button-response_instructions","9","75611","0.0-9.0","AUZNL6ARA1UEC","img_art/ins/popularity/ins3ANamepop.PNG","0","instructions","","","","","","","","","","","","","","","","","","","","","","","",""
"3037","","image-button-response_instructions","10","78651","0.0-10.0","AUZNL6ARA1UEC","img_art/ins/popularity/ins3ARatingpop.png","0","instructions","","","","","","","","","","","","","","","","","","","","","","","",""
"2800","","image-button-response_instructions","11","81454","0.0-11.0","AUZNL6ARA1UEC","img_art/ins/popularity/ins3ATextpop.png","0","instructions","","","","","","","","","","","","","","","","","","","","","","","",""
"8428","","image-button-response_instructions","12","89884","0.0-12.0","AUZNL6ARA1UEC","img_art/ins/popularity/ins3ALikespop.png","0","instructions","","","","","","","","","","","","","","","","","","","","","","","",""
"13976","","image-button-response_instructions","13","103863","0.0-13.0","AUZNL6ARA1UEC","img_art/ins/popularity/ins3KEEPpop.PNG","0","instructions","","","","","","","","","","","","","","","","","","","","","","","",""
"19092","","image-button-response_instructions","14","122957","0.0-14.0","AUZNL6ARA1UEC","img_art/ins/popularity/ins3_5RED.png","0","instructions","","","","","","","","","","","","","","","","","","","","","","","",""
"4847","","image-button-response_instructions","15","127807","0.0-15.0","AUZNL6ARA1UEC","img_art/ins/popularity/ins3KEEPpop.PNG","0","instructions","","","","","","","","","","","","","","","","","","","","","","","",""
"9350","","image-button-response_instructions","16","137159","0.0-16.0","AUZNL6ARA1UEC","img_art/ins/popularity/ins4KEEPpop.PNG","0","instructions","","","","","","","","","","","","","","","","","","","","","","","",""
"4725","","image-button-response_instructions","17","141886","0.0-17.0","AUZNL6ARA1UEC","img_art/ins/popularity/ins5KEEPpop.PNG","0","instructions","","","","","","","","","","","","","","","","","","","","","","","",""
"1750","","image-button-response_instructions","18","143639","0.0-18.0","AUZNL6ARA1UEC","","0","instructions","","","","","","","","","","","","","","","","","","","","","","","",""
"7046","","survey-text","19","150711","0.0-19.0-0.0","AUZNL6ARA1UEC","","","","{""Q0"":""but""}","","","","","","","","","","","","","","","","","","","","","","",""
"32057","","survey-text","20","182772","0.0-20.0-0.0","AUZNL6ARA1UEC","","","","{""Q0"":""It looks like a young child went wild with some crayons.""}","","","","","","","","","","","","","","","","","","","","","","",""
"3945.2999992370605","","image-slider-response","21","186725","0.0-21.0","AUZNL6ARA1UEC","","","","","-40","","","","","","","","","","","","","","","","","","","","","",""
"null","","image-button-response","22","191732","0.0-22.0","AUZNL6ARA1UEC","img_art/ins/1.jpg","null","","","","","","","","","","","","","","","","","","","","","","","","",""
"4092","","image-button-response","23","195827","0.0-23.0","AUZNL6ARA1UEC","img_art/ins/1.jpg","2","","","","","","","","","","","","","","","","","","","","","","","","",""
"4769","","image-button-response","24","200599","0.0-24.0-0.0","AUZNL6ARA1UEC","img_art/ins/1.jpg","4","","","","","","","","","","","","","","","","","","","","","","","","",""
"1894","","image-button-response","25","202500","0.0-25.0-0.0","AUZNL6ARA1UEC","img_art/ins/1.jpg","0","","","","","","","","","","","","","","","","","","","","","","","","",""
"null","","html-keyboard-response","26","203504","0.0-26.0","AUZNL6ARA1UEC","<p style=""font-size: 48px;"">+</p>","","","","","null","allTrialResponses","1000","1","-2","img_art/ins/1.jpg","-40","It looks like a young child went wild with some crayons.","Adam,Alex,Ben,Carl,Daniel,Jack","Seems like doodles,-20,20,20","very creative work.,36,40,20","This color reminds me of poo,-46,60,20","very calming artwork,42,80,20","It looks like a murder scene.,-48,100,20","I like the sophisticated brushwork,40,120,20","Ben","This color reminds me of poo,-46,60,20","Daniel","It looks like a murder scene.,-48,100,20","Adam","Seems like doodles,-20,20,20","0"
"12237","","survey-text","27","215749","0.0-27.0-0.0","AUZNL6ARA1UEC","","","","{""Q0"":""It's just an ugly mess.""}","","","","","","","","","","","","","","","","","","","","","","",""
"3716.4000005722046","","image-slider-response","28","219470","0.0-28.0","AUZNL6ARA1UEC","","","","","-50","","","","","","","","","","","","","","","","","","","","","",""
"3131","","image-button-response","29","224476","0.0-29.0","AUZNL6ARA1UEC","img_art/ins/2.jpg","2","","","","","","","","","","","","","","","","","","","","","","","","",""
"3600","","image-button-response","30","228082","0.0-30.0","AUZNL6ARA1UEC","img_art/ins/2.jpg","5","","","","","","","","","","","","","","","","","","","","","","","","",""
"1505","","image-button-response","31","229595","0.0-31.0-0.0","AUZNL6ARA1UEC","img_art/ins/2.jpg","3","","","","","","","","","","","","","","","","","","","","","","","","",""
"1520","","image-button-response","32","231117","0.0-32.0-0.0","AUZNL6ARA1UEC","img_art/ins/2.jpg","2","","","","","","","","","","","","","","","","","","","","","","","","",""
"null","","html-keyboard-response","33","231618","0.0-33.0","AUZNL6ARA1UEC","<p style=""font-size: 48px;"">+</p>","","","","","null","allTrialResponses","500","1","-1","img_art/ins/2.jpg","-50","It's just an ugly mess.","Adam,John,Ben,James,Daniel,Kyle","too much color,-18,20,20","love the texture of paint,48,160,20","meaningless painting,-45,60,20","looks too angry,-50,140,20","One of my pet peevs,-48,100,20","Idk, it is just annoying,-32,180,20","Kyle","Idk, it is just annoying,-32,180,20","James","looks too angry,-50,140,20","Ben","meaningless painting,-45,60,20","0"
"29395","","survey-text","34","261023","0.0-34.0-0.0","AUZNL6ARA1UEC","","","","{""Q0"":""I like the shades of blue, but this is just a mess.""}","","","","","","","","","","","","","","","","","","","","","","",""
"7805.400000572205","","image-slider-response","35","268833","0.0-35.0","AUZNL6ARA1UEC","","","","","-43","","","","","","","","","","","","","","","","","","","","","",""
"null","","image-button-response","36","273836","0.0-36.0","AUZNL6ARA1UEC","img_art/ins/3.jpg","null","","","","","","","","","","","","","","","","","","","","","","","","",""
"7142","","image-button-response","37","280982","0.0-37.0","AUZNL6ARA1UEC","img_art/ins/3.jpg","0","","","","","","","","","","","","","","","","","","","","","","","","",""
"6750","","image-button-response","38","287737","0.0-38.0-0.0","AUZNL6ARA1UEC","img_art/ins/3.jpg","4","","","","","","","","","","","","","","","","","","","","","","","","",""
"5446","","image-button-response","39","293187","0.0-39.0-0.0","AUZNL6ARA1UEC","img_art/ins/3.jpg","1","","","","","","","","","","","","","","","","","","","","","","","","",""
"null","","html-keyboard-response","40","293690","0.0-40.0","AUZNL6ARA1UEC","<p style=""font-size: 48px;"">+</p>","","","","","null","allTrialResponses","500","1","0","img_art/ins/3.jpg","-43","I like the shades of blue, but this is just a mess.","Sam,Mike,Ben,James,Ron,Kyle","I can feel a rainy day from this painting,18,240,20","enjoy the different shades of blue,22,200,20","This thing gives me anxiety,-41,60,20","My worst nightmare,-42,140,20","It looks depressing,-26,220,20","It looks like a playground for bats,-36,180,20","Sam","I can feel a rainy day from this painting,18,240,20","Ron","It looks depressing,-26,220,20","Mike","enjoy the different shades of blue,22,200,20","0"
"16680","","image-button-response_instructions","41","310381","0.0-41.0","AUZNL6ARA1UEC","","0","instructions","","","","","","","","","","","","","","","","","","","","","","","",""
"9137","","survey-likert","42","319521","0.0-42.0-0.0","AUZNL6ARA1UEC","","","","{""Q0"":"""",""Q1"":0,""Q2"":1}","","","","","","","","","","","","","","","","","","","","","","",""
"5962","","survey-text","43","325488","0.0-43.0-0.0","AUZNL6ARA1UEC","","","","{""Q0"":""rock""}","","","","","","","","","","","","","","","","","","","","","","",""
"30111","","survey-text","44","355602","0.0-44.0-0.0","AUZNL6ARA1UEC","","","","{""Q0"":""It is a little interesting. I try to make sense of it but cannot.""}","","","","","","","","","","","","","","","","","","","","","","",""
"3088.6000003814697","","image-slider-response","45","358695","0.0-45.0","AUZNL6ARA1UEC","","","","","-36","","","","","","","","","","","","","","","","","","","","","",""
"null","","image-button-response","46","363720","0.0-46.0","AUZNL6ARA1UEC","img_art/27.jpg","null","","","","","","","","","","","","","","","","","","","","","","","","",""
"14388","","image-button-response","47","378110","0.0-47.0","AUZNL6ARA1UEC","img_art/27.jpg","3","","","","","","","","","","","","","","","","","","","","","","","","",""
"5466","","image-button-response","48","383578","0.0-48.0-0.0","AUZNL6ARA1UEC","img_art/27.jpg","1","","","","","","","","","","","","","","","","","","","","","","","","",""
"6921","","image-button-response","49","390503","0.0-49.0-0.0","AUZNL6ARA1UEC","img_art/27.jpg","4","","","","","","","","","","","","","","","","","","","","","","","","",""
"null","","html-keyboard-response","50","391005","0.0-50.0","AUZNL6ARA1UEC","<p style=""font-size: 48px;"">+</p>","","","","","null","allTrialResponses","500","1","1","img_art/27.jpg","-36","It is a little interesting. I try to make sense of it but cannot.","Vincent,Travis,Antonio,Jesse,Seth,Mason","A beautiful day full of Hope and Inspiritation. The warmth of hot cocoa with the family gathering around,33,360,20","I don't like any of it...just scibbles.,-37,260,20","Didnt actually make me feel anything, sort of bland,3,220,20","Doesnt look like anything to me. Doesnt capture my attention.,-25,80,20","I don't care for the green scribbles; not sure what they are. But I adore the colors in the background.,24,60,20","dont like it, don't hate it, meh.,2,100,20","Jesse","Doesnt look like anything to me. Doesnt capture my attention.,-25,80,20","Travis","I don't like any of it...just scibbles.,-37,260,20","Seth","I don't care for the green scribbles; not sure what they are. But I adore the colors in the background.,24,60,20","0"
"22058","","survey-text","51","413070","0.0-51.0-0.0","AUZNL6ARA1UEC","","","","{""Q0"":""I don't care for this at all.""}","","","","","","","","","","","","","","","","","","","","","","",""
"2528.800000190735","","image-slider-response","52","415602","0.0-52.0","AUZNL6ARA1UEC","","","","","-50","","","","","","","","","","","","","","","","","","","","","",""
"null","","image-button-response","53","420606","0.0-53.0","AUZNL6ARA1UEC","img_art/29.jpg","null","","","","","","","","","","","","","","","","","","","","","","","","",""
"7534","","image-button-response","54","428144","0.0-54.0","AUZNL6ARA1UEC","img_art/29.jpg","4","","","","","","","","","","","","","","","","","","","","","","","","",""
"762","","image-button-response","55","428909","0.0-55.0-0.0","AUZNL6ARA1UEC","img_art/29.jpg","0","","","","","","","","","","","","","","","","","","","","","","","","",""
"2063","","image-button-response","56","430975","0.0-56.0-0.0","AUZNL6ARA1UEC","img_art/29.jpg","0","","","","","","","","","","","","","","","","","","","","","","","","",""
"846","","image-button-response","57","436642","0.0-56.1-0.1","AUZNL6ARA1UEC","img_art/29.jpg","0","","","","","","","","","","","","","","","","","","","","","","","","",""
"895","","image-button-response","58","444155","0.0-56.2-0.2","AUZNL6ARA1UEC","img_art/29.jpg","2","","","","","","","","","","","","","","","","","","","","","","","","",""
"null","","html-keyboard-response","59","445156","0.0-57.0","AUZNL6ARA1UEC","<p style=""font-size: 48px;"">+</p>","","","","","null","allTrialResponses","1000","1","2","img_art/29.jpg","-50","I don't care for this at all.","Bryce,Travis,Hunter,Jesse,Seth,Richard","Its kinda scary,-35,20,20","Neural...just a blackboard jungle.,3,260,20","abrasive and grotesque textures,-36,240,20","Grabs interest but then confuses me,6,80,20","I rated it lower because it looked like a crime scene. It didn't make me feel good.,-44,60,20","it's OK, no clue to what's going on but good use of light and dark,4,340,20","Seth","I rated it lower because it looked like a crime scene. It didn't make me feel good.,-44,60,20","Bryce","Its kinda scary,-35,20,20","Hunter","abrasive and grotesque textures,-36,240,20","4"
"35086","","survey-text","60","480248","0.0-58.0-0.0","AUZNL6ARA1UEC","","","","{""Q0"":""Looks like a three year old tried to paint a pear.""}","","","","","","","","","","","","","","","","","","","","","","",""
"5324.5","","image-slider-response","61","485576","0.0-59.0","AUZNL6ARA1UEC","","","","","-22","","","","","","","","","","","","","","","","","","","","","",""
"null","","image-button-response","62","490579","0.0-60.0","AUZNL6ARA1UEC","img_art/5.jpg","null","","","","","","","","","","","","","","","","","","","","","","","","",""
"6475","","image-button-response","63","497057","0.0-61.0","AUZNL6ARA1UEC","img_art/5.jpg","3","","","","","","","","","","","","","","","","","","","","","","","","",""
"1028","","image-button-response","64","498088","0.0-62.0-0.0","AUZNL6ARA1UEC","img_art/5.jpg","1","","","","","","","","","","","","","","","","","","","","","","","","",""
"4957","","image-button-response","65","503048","0.0-63.0-0.0","AUZNL6ARA1UEC","img_art/5.jpg","2","","","","","","","","","","","","","","","","","","","","","","","","",""
"null","","html-keyboard-response","66","504050","0.0-64.0","AUZNL6ARA1UEC","<p style=""font-size: 48px;"">+</p>","","","","","null","allTrialResponses","1000","1","3","img_art/5.jpg","-22","Looks like a three year old tried to paint a pear.","Bryce,David,Hunter,Malik,Seth,Charles","I love the yellow! It really pops!,30,20,20","I like the simplicity of the design, but I can't tell what the image is trying to depict.,10,340,20","strong appeal in contrast,27,240,20","Not sure what I'm looking at,-16,40,20","I didn't care for this art piece. I wasn't sure about the color choice.,-15,60,20","It feels positive and kind of uplifting,24,100,20","Malik","Not sure what I'm looking at,-16,40,20","David","I like the simplicity of the design, but I can't tell what the image is trying to depict.,10,340,20","Hunter","strong appeal in contrast,27,240,20","4"
"79811","","survey-text","67","583868","0.0-65.0-0.0","AUZNL6ARA1UEC","","","","{""Q0"":""It's interesting, the colors are calming.""}","","","","","","","","","","","","","","","","","","","","","","",""
"4266.800000190735","","image-slider-response","68","588139","0.0-66.0","AUZNL6ARA1UEC","","","","","12","","","","","","","","","","","","","","","","","","","","","",""
"null","","image-button-response","69","593143","0.0-67.0","AUZNL6ARA1UEC","img_art/13.jpg","null","","","","","","","","","","","","","","","","","","","","","","","","",""
"5113","","image-button-response","70","598260","0.0-68.0","AUZNL6ARA1UEC","img_art/13.jpg","5","","","","","","","","","","","","","","","","","","","","","","","","",""
"714","","image-button-response","71","598977","0.0-69.0-0.0","AUZNL6ARA1UEC","img_art/13.jpg","0","","","","","","","","","","","","","","","","","","","","","","","","",""
"2302","","image-button-response","72","601283","0.0-70.0-0.0","AUZNL6ARA1UEC","img_art/13.jpg","1","","","","","","","","","","","","","","","","","","","","","","","","",""
"null","","html-keyboard-response","73","602286","0.0-71.0","AUZNL6ARA1UEC","<p style=""font-size: 48px;"">+</p>","","","","","null","allTrialResponses","1000","1","4","img_art/13.jpg","12","It's interesting, the colors are calming.","Jordan,David,Hunter,Malik,Jack,Christopher","This is easy to look at,46,160,20","I like the color coordination between the foreground and background.,10,340,20","feels sterile/manufactured,1,240,20","Gorgeous contrast and color choice, very pleasing,50,40,20","exciting & chaotic. love the colors.,50,320,20","this is an appealing mix of textures to me and the color scheme is harmonious,36,160,20","Christopher","this is an appealing mix of textures to me and the color scheme is harmonious,36,160,20","Jordan","This is easy to look at,46,160,20","David","I like the color coordination between the foreground and background.,10,340,20","4"
"19396","","survey-text","74","621691","0.0-72.0-0.0","AUZNL6ARA1UEC","","","","{""Q0"":""This just looks gross, it's not art.""}","","","","","","","","","","","","","","","","","","","","","","",""
"4546.5","","image-slider-response","75","626241","0.0-73.0","AUZNL6ARA1UEC","","","","","-50","","","","","","","","","","","","","","","","","","","","","",""
"null","","image-button-response","76","631248","0.0-74.0","AUZNL6ARA1UEC","img_art/4.jpg","null","","","","","","","","","","","","","","","","","","","","","","","","",""
"8179","","image-button-response","77","639431","0.0-75.0","AUZNL6ARA1UEC","img_art/4.jpg","3","","","","","","","","","","","","","","","","","","","","","","","","",""
"3206","","image-button-response","78","642641","0.0-76.0-0.0","AUZNL6ARA1UEC","img_art/4.jpg","2","","","","","","","","","","","","","","","","","","","","","","","","",""
"7494","","image-button-response","79","650142","0.0-77.0-0.0","AUZNL6ARA1UEC","img_art/4.jpg","4","","","","","","","","","","","","","","","","","","","","","","","","",""
"null","","html-keyboard-response","80","650647","0.0-78.0","AUZNL6ARA1UEC","<p style=""font-size: 48px;"">+</p>","","","","","null","allTrialResponses","500","1","5","img_art/4.jpg","-50","This just looks gross, it's not art.","Jordan,David,Kyle,Victor,Derek,Christopher","A hand reaching for something it cannot obtain,-9,160,20","I like the design. It can be interpreted in various ways, such as a hand of horror or still piece.,15,340,20","It's quite meh to me,0,340,20","Hate the color, and just do not get the point.,-13,340,20","A bit too plain for my tastes,-10,360,20","too many red/yellow shades, its impact without a reason,-27,160,20","Victor","Hate the color, and just do not get the point.,-13,340,20","Kyle","It's quite meh to me,0,340,20","Derek","A bit too plain for my tastes,-10,360,20","4"
"7866","","survey-text","81","658523","0.0-79.0-0.0","AUZNL6ARA1UEC","","","","{""Q0"":""sky""}","","","","","","","","","","","","","","","","","","","","","","",""
"29853","","survey-text","82","688377","0.0-80.0-0.0","AUZNL6ARA1UEC","","","","{""Q0"":""Finally something cool. I like this one.""}","","","","","","","","","","","","","","","","","","","","","","",""
"5068.300000190735","","image-slider-response","83","693450","0.0-81.0","AUZNL6ARA1UEC","","","","","47","","","","","","","","","","","","","","","","","","","","","",""
"null","","image-button-response","84","698455","0.0-82.0","AUZNL6ARA1UEC","img_art/18.jpg","null","","","","","","","","","","","","","","","","","","","","","","","","",""
"8458","","image-button-response","85","706920","0.0-83.0","AUZNL6ARA1UEC","img_art/18.jpg","4","","","","","","","","","","","","","","","","","","","","","","","","",""
"3163","","image-button-response","86","710088","0.0-84.0-0.0","AUZNL6ARA1UEC","img_art/18.jpg","3","","","","","","","","","","","","","","","","","","","","","","","","",""
"5888","","image-button-response","87","715981","0.0-85.0-0.0","AUZNL6ARA1UEC","img_art/18.jpg","0","","","","","","","","","","","","","","","","","","","","","","","","",""
"null","","html-keyboard-response","88","717485","0.0-86.0","AUZNL6ARA1UEC","<p style=""font-size: 48px;"">+</p>","","","","","null","allTrialResponses","1500","1","6","img_art/18.jpg","47","Finally something cool. I like this one.","Nathan,Devin,Kyle,Victor,Derek,Eric","Doesn't really speak to me well but I can appreciate it,10,200,20","Good concept but then scribbled on a bit?,15,380,20","I feel indifferent about this one,0,340,20","nice balance of color. The different sizes and types of strokes give a lot to look at,18,340,20","Very wild and abstract. I love it and would definitely hang this up in my home,50,360,20","I like the colors being used, but I don't like the chaos in the middle of it.,20,100,20","Derek","Very wild and abstract. I love it and would definitely hang this up in my home,50,360,20","Victor","nice balance of color. The different sizes and types of strokes give a lot to look at,18,340,20","Nathan","Doesn't really speak to me well but I can appreciate it,10,200,20","4"
"57161","","survey-text","89","774656","0.0-87.0-0.0","AUZNL6ARA1UEC","","","","{""Q0"":""Tried staring at it to get what was going on and just made myself dizzy.""}","","","","","","","","","","","","","","","","","","","","","","",""
"2573.3999996185303","","image-slider-response","90","777234","0.0-88.0","AUZNL6ARA1UEC","","","","","-45","","","","","","","","","","","","","","","","","","","","","",""
"null","","image-button-response","91","782241","0.0-89.0","AUZNL6ARA1UEC","img_art/22.jpg","null","","","","","","","","","","","","","","","","","","","","","","","","",""
"7899","","image-button-response","92","790145","0.0-90.0","AUZNL6ARA1UEC","img_art/22.jpg","5","","","","","","","","","","","","","","","","","","","","","","","","",""
"2405","","image-button-response","93","792554","0.0-91.0-0.0","AUZNL6ARA1UEC","img_art/22.jpg","2","","","","","","","","","","","","","","","","","","","","","","","","",""
"3888","","image-button-response","94","796444","0.0-92.0-0.0","AUZNL6ARA1UEC","img_art/22.jpg","0","","","","","","","","","","","","","","","","","","","","","","","","",""
"null","","html-keyboard-response","95","797448","0.0-93.0","AUZNL6ARA1UEC","<p style=""font-size: 48px;"">+</p>","","","","","null","allTrialResponses","1000","1","7","img_art/22.jpg","-45","Tried staring at it to get what was going on and just made myself dizzy.","Nathan,Justin,Shawn,Victor,Derek,Alex","A bit colorful, but slightly enjoyable, almost gives off castle/sunset vibes,10,200,20","It reminds me of sunsets and dusks.,22,280,20","Still like the colors but not the most interesting composition,17,100,20","I don't really know why, I just like looking at it,10,340,20","Really pretty. Love the colors.,30,360,20","Not a huge fan of the blocks, also very abstract, I have no idea what it is,8,100,20","Alex","Not a huge fan of the blocks, also very abstract, I have no idea what it is,8,100,20","Shawn","Still like the colors but not the most interesting composition,17,100,20","Nathan","A bit colorful, but slightly enjoyable, almost gives off castle/sunset vibes,10,200,20","4"
"42521","","survey-text","96","839973","0.0-94.0-0.0","AUZNL6ARA1UEC","","","","{""Q0"":""I find this entertaining. It's good.""}","","","","","","","","","","","","","","","","","","","","","","",""
"16304.199999809265","","image-slider-response","97","856283","0.0-95.0","AUZNL6ARA1UEC","","","","","7","","","","","","","","","","","","","","","","","","","","","",""
"null","","image-button-response","98","861290","0.0-96.0","AUZNL6ARA1UEC","img_art/17.jpg","null","","","","","","","","","","","","","","","","","","","","","","","","",""
"17669","","image-button-response","99","878963","0.0-97.0","AUZNL6ARA1UEC","img_art/17.jpg","3","","","","","","","","","","","","","","","","","","","","","","","","",""
"1509","","image-button-response","100","880478","0.0-98.0-0.0","AUZNL6ARA1UEC","img_art/17.jpg","1","","","","","","","","","","","","","","","","","","","","","","","","",""
"8764","","image-button-response","101","889247","0.0-99.0-0.0","AUZNL6ARA1UEC","img_art/17.jpg","4","","","","","","","","","","","","","","","","","","","","","","","","",""
"null","","html-keyboard-response","102","889751","0.0-100.0","AUZNL6ARA1UEC","<p style=""font-size: 48px;"">+</p>","","","","","null","allTrialResponses","500","1","8","img_art/17.jpg","7","I find this entertaining. It's good.","Nathan,Ryan,Shawn,Dalton,Lucas,Alex","It's alright, nothing I particularly like but it's just fine,-10,200,20","Feels supernatural and scary,-16,380,20","Pretty but a little cheesy,-10,100,20","Beautiful simply beautiful. i would love this,,50,300,20","Wow, I haven't seen anything better than this.,40,380,20","I can tell there are tress and maybe some doors but I'm not a fan of the style,-2,100,20","Dalton","Beautiful simply beautiful. i would love this,,50,300,20","Ryan","Feels supernatural and scary,-16,380,20","Lucas","Wow, I haven't seen anything better than this.,40,380,20","4"
"22209","","survey-text","103","911962","0.0-101.0-0.0","AUZNL6ARA1UEC","","","","{""Q0"":""I don't think this should qualify as art. ""}","","","","","","","","","","","","","","","","","","","","","","",""
"3567.0999994277954","","image-slider-response","104","915533","0.0-102.0","AUZNL6ARA1UEC","","","","","-50","","","","","","","","","","","","","","","","","","","","","",""
"null","","image-button-response","105","920536","0.0-103.0","AUZNL6ARA1UEC","img_art/7.jpg","null","","","","","","","","","","","","","","","","","","","","","","","","",""
"7562","","image-button-response","106","928103","0.0-104.0","AUZNL6ARA1UEC","img_art/7.jpg","3","","","","","","","","","","","","","","","","","","","","","","","","",""
"3141","","image-button-response","107","931249","0.0-105.0-0.0","AUZNL6ARA1UEC","img_art/7.jpg","4","","","","","","","","","","","","","","","","","","","","","","","","",""
"1887","","image-button-response","108","933139","0.0-106.0-0.0","AUZNL6ARA1UEC","img_art/7.jpg","1","","","","","","","","","","","","","","","","","","","","","","","","",""
"null","","html-keyboard-response","109","934641","0.0-107.0","AUZNL6ARA1UEC","<p style=""font-size: 48px;"">+</p>","","","","","null","allTrialResponses","1500","1","9","img_art/7.jpg","-50","I don't think this should qualify as art. ","Dustin,Ryan,Blake,Dalton,Lucas,Angel","I see dryness, which is sad. Dirt, sand, the dessert. Barren dry lifeless,-30,20,20","I hate everything about this painting from the cors to it looking like a war,-50,380,20","hot desert with big rocks.,-19,280,20","i dont like it. it looks like rocks,-40,300,20","Don't understand the meaning of this picture.,-30,380,20","It's off-putting because it reminds me of walking over rough sand/rocks or having scabs on my skin.,-10,180,20","Dalton","i dont like it. it looks like rocks,-40,300,20","Lucas","Don't understand the meaning of this picture.,-30,380,20","Ryan","I hate everything about this painting from the cors to it looking like a war,-50,380,20","4"
"51481","","survey-text","110","986126","0.0-108.0-0.0","AUZNL6ARA1UEC","","","","{""Q0"":""It's attention grabbing. But I don't know if it's in a good way.""}","","","","","","","","","","","","","","","","","","","","","","",""
"4234","","image-slider-response","111","990364","0.0-109.0","AUZNL6ARA1UEC","","","","","-18","","","","","","","","","","","","","","","","","","","","","",""
"4787","","image-button-response","112","995370","0.0-110.0","AUZNL6ARA1UEC","img_art/16.jpg","3","","","","","","","","","","","","","","","","","","","","","","","","",""
"1978","","image-button-response","113","997353","0.0-111.0","AUZNL6ARA1UEC","img_art/16.jpg","5","","","","","","","","","","","","","","","","","","","","","","","","",""
"1088","","image-button-response","114","998447","0.0-112.0-0.0","AUZNL6ARA1UEC","img_art/16.jpg","3","","","","","","","","","","","","","","","","","","","","","","","","",""
"1544","","image-button-response","115","999995","0.0-113.0-0.0","AUZNL6ARA1UEC","img_art/16.jpg","2","","","","","","","","","","","","","","","","","","","","","","","","",""
"null","","html-keyboard-response","116","1000498","0.0-114.0","AUZNL6ARA1UEC","<p style=""font-size: 48px;"">+</p>","","","","","null","allTrialResponses","500","1","10","img_art/16.jpg","-18","It's attention grabbing. But I don't know if it's in a good way.","Gregory,Ryan,Steven,Dalton,Lucas,James","Weird and funny,40,220,20","Very modern, reminds me of bansky,43,380,20","Not interested at all,-15,160,20","lol i dont know how i feel about this.,1,300,20","It's frightening.,30,380,20","It is interesting to say the least,0,380,20","James","It is interesting to say the least,0,380,20","Dalton","lol i dont know how i feel about this.,1,300,20","Steven","Not interested at all,-15,160,20","4"
"5581","","survey-text","117","1006097","0.0-115.0-0.0","AUZNL6ARA1UEC","","","","{""Q0"":""our""}","","","","","","","","","","","","","","","","","","","","","","",""
"27803","","survey-text","118","1033904","0.0-116.0-0.0","AUZNL6ARA1UEC","","","","{""Q0"":""I just don't like it, it's really ugly in my eyes.""}","","","","","","","","","","","","","","","","","","","","","","",""
"3200.8999996185303","","image-slider-response","119","1037109","0.0-117.0","AUZNL6ARA1UEC","","","","","-48","","","","","","","","","","","","","","","","","","","","","",""
"null","","image-button-response","120","1042115","0.0-118.0","AUZNL6ARA1UEC","img_art/8.jpg","null","","","","","","","","","","","","","","","","","","","","","","","","",""
"11075","","image-button-response","121","1053195","0.0-119.0","AUZNL6ARA1UEC","img_art/8.jpg","5","","","","","","","","","","","","","","","","","","","","","","","","",""
"1866","","image-button-response","122","1055065","0.0-120.0-0.0","AUZNL6ARA1UEC","img_art/8.jpg","0","","","","","","","","","","","","","","","","","","","","","","","","",""
"3231","","image-button-response","123","1058302","0.0-121.0-0.0","AUZNL6ARA1UEC","img_art/8.jpg","1","","","","","","","","","","","","","","","","","","","","","","","","",""
"null","","html-keyboard-response","124","1059307","0.0-122.0","AUZNL6ARA1UEC","<p style=""font-size: 48px;"">+</p>","","","","","null","allTrialResponses","1000","1","11","img_art/8.jpg","-48","I just don't like it, it's really ugly in my eyes.","Jake,Paul,Steven,Dalton,Alexis,James","It's a poor rendition of an MC Escher inspired piece.,-25,360,20","The faces in the upper left show agony and contrast with the geometric shapes too much,-31,300,20","very nice, i love what's going on here,21,160,20","woman looking over a the community,1,300,20","I like that it sort of looks like a cityscape,9,140,20","It's very odd and I don't really like it,-30,380,20","James","It's very odd and I don't really like it,-30,380,20","Jake","It's a poor rendition of an MC Escher inspired piece.,-25,360,20","Paul","The faces in the upper left show agony and contrast with the geometric shapes too much,-31,300,20","4"
"15694","","survey-text","125","1075008","0.0-123.0-0.0","AUZNL6ARA1UEC","","","","{""Q0"":""Very creepy looking. No thanks.""}","","","","","","","","","","","","","","","","","","","","","","",""
"4449.900000572205","","image-slider-response","126","1079463","0.0-124.0","AUZNL6ARA1UEC","","","","","-50","","","","","","","","","","","","","","","","","","","","","",""
"null","","image-button-response","127","1084470","0.0-125.0","AUZNL6ARA1UEC","img_art/25.jpg","null","","","","","","","","","","","","","","","","","","","","","","","","",""
"12823","","image-button-response","128","1097297","0.0-126.0","AUZNL6ARA1UEC","img_art/25.jpg","0","","","","","","","","","","","","","","","","","","","","","","","","",""
"1951","","image-button-response","129","1099253","0.0-127.0-0.0","AUZNL6ARA1UEC","img_art/25.jpg","1","","","","","","","","","","","","","","","","","","","","","","","","",""
"2136","","image-button-response","130","1101394","0.0-128.0-0.0","AUZNL6ARA1UEC","img_art/25.jpg","3","","","","","","","","","","","","","","","","","","","","","","","","",""
"null","","html-keyboard-response","131","1102398","0.0-129.0","AUZNL6ARA1UEC","<p style=""font-size: 48px;"">+</p>","","","","","null","allTrialResponses","1000","1","12","img_art/25.jpg","-50","Very creepy looking. No thanks.","Jake,Paul,Garrett,Juan,Jeffrey,James","This is strange and poorly done.,-2,360,20","The skeletal figure is a bit scary,-12,300,20","I like the way the persons clothes look, there could be more color though.,10,180,20","I don't like the color. I don't like the abstract-ness of it.,-22,260,20","reminds me of a demon,-25,40,20","This would definitely be hanging in my bedroom in my house,50,380,20","Jake","This is strange and poorly done.,-2,360,20","Paul","The skeletal figure is a bit scary,-12,300,20","Juan","I don't like the color. I don't like the abstract-ness of it.,-22,260,20","4"
"33166","","survey-text","132","1135574","0.0-130.0-0.0","AUZNL6ARA1UEC","","","","{""Q0"":""It looked like a headless bird at first, but I guess it's a tree?""}","","","","","","","","","","","","","","","","","","","","","","",""
"3809.800000190735","","image-slider-response","133","1139388","0.0-131.0","AUZNL6ARA1UEC","","","","","-40","","","","","","","","","","","","","","","","","","","","","",""
"null","","image-button-response","134","1144391","0.0-132.0","AUZNL6ARA1UEC","img_art/6.jpg","null","","","","","","","","","","","","","","","","","","","","","","","","",""
"34263","","image-button-response","135","1178656","0.0-133.0","AUZNL6ARA1UEC","img_art/6.jpg","3","","","","","","","","","","","","","","","","","","","","","","","","",""
"2686","","image-button-response","136","1181344","0.0-134.0-0.0","AUZNL6ARA1UEC","img_art/6.jpg","1","","","","","","","","","","","","","","","","","","","","","","","","",""
"7118","","image-button-response","137","1188465","0.0-135.0-0.0","AUZNL6ARA1UEC","img_art/6.jpg","2","","","","","","","","","","","","","","","","","","","","","","","","",""
"null","","html-keyboard-response","138","1189967","0.0-136.0","AUZNL6ARA1UEC","<p style=""font-size: 48px;"">+</p>","","","","","null","allTrialResponses","1500","1","13","img_art/6.jpg","-40","It looked like a headless bird at first, but I guess it's a tree?","Jake,Paul,Connor,Juan,Mitchell,Tanner","It feels sad but it's nice to look at.,4,360,20","Maybe it's supposed to be a bird but it looks like a scary cloaked figure. it's just too simple and jarring,-23,300,20","Blackbird in the desert,27,240,20","I don't like the colors and the dark shape at the top makes me think of a buzzard.,-28,260,20","Looking, searching at the same time being content.,30,180,20","loneliness, fragile, forever alone, a girl who's been there for eternity, only think tracking time is the length of her hair,9,180,20","Juan","I don't like the colors and the dark shape at the top makes me think of a buzzard.,-28,260,20","Paul","Maybe it's supposed to be a bird but it looks like a scary cloaked figure. it's just too simple and jarring,-23,300,20","Connor","Blackbird in the desert,27,240,20","4"
"33419","","survey-text","139","1223394","0.0-137.0-0.0","AUZNL6ARA1UEC","","","","{""Q0"":""Reminds me of a centipede and the background is ugly as well.""}","","","","","","","","","","","","","","","","","","","","","","",""
"4016.3999996185303","","image-slider-response","140","1227412","0.0-138.0","AUZNL6ARA1UEC","","","","","-43","","","","","","","","","","","","","","","","","","","","","",""
"null","","image-button-response","141","1232416","0.0-139.0","AUZNL6ARA1UEC","img_art/23.jpg","null","","","","","","","","","","","","","","","","","","","","","","","","",""
"575","","image-button-response","142","1232995","0.0-140.0","AUZNL6ARA1UEC","img_art/23.jpg","3","","","","","","","","","","","","","","","","","","","","","","","","",""
"2289","","image-button-response","143","1235286","0.0-141.0-0.0","AUZNL6ARA1UEC","img_art/23.jpg","5","","","","","","","","","","","","","","","","","","","","","","","","",""
"6372","","image-button-response","144","1241662","0.0-142.0-0.0","AUZNL6ARA1UEC","img_art/23.jpg","2","","","","","","","","","","","","","","","","","","","","","","","","",""
"null","","html-keyboard-response","145","1242166","0.0-143.0","AUZNL6ARA1UEC","<p style=""font-size: 48px;"">+</p>","","","","","null","allTrialResponses","500","1","14","img_art/23.jpg","-43","Reminds me of a centipede and the background is ugly as well.","Jorge,Paul,Connor,Juan,Carlos,Brian","puzzled with curiosity,31,180,20","I like the sharp contrast of the white on the colorful background,27,300,20","Confetti dancer,-7,240,20","This is ugly and weird.,-50,260,20","It feels active and vibrant.,20,80,20","this looks like a pop rock album cover,-10,380,20","Juan","This is ugly and weird.,-50,260,20","Brian","this looks like a pop rock album cover,-10,380,20","Connor","Confetti dancer,-7,240,20","4"
"45064","","survey-text","146","1287237","0.0-144.0-0.0","AUZNL6ARA1UEC","","","","{""Q0"":""I like this I find it pleasant and calming to look at.""}","","","","","","","","","","","","","","","","","","","","","","",""
"5070.400000572205","","image-slider-response","147","1292310","0.0-145.0","AUZNL6ARA1UEC","","","","","37","","","","","","","","","","","","","","","","","","","","","",""
"null","","image-button-response","148","1297316","0.0-146.0","AUZNL6ARA1UEC","img_art/26.jpg","null","","","","","","","","","","","","","","","","","","","","","","","","",""
"11179","","image-button-response","149","1308499","0.0-147.0","AUZNL6ARA1UEC","img_art/26.jpg","1","","","","","","","","","","","","","","","","","","","","","","","","",""
"4777","","image-button-response","150","1313281","0.0-148.0-0.0","AUZNL6ARA1UEC","img_art/26.jpg","2","","","","","","","","","","","","","","","","","","","","","","","","",""
"8348","","image-button-response","151","1321632","0.0-149.0-0.0","AUZNL6ARA1UEC","img_art/26.jpg","3","","","","","","","","","","","","","","","","","","","","","","","","",""
"null","","html-keyboard-response","152","1322136","0.0-150.0","AUZNL6ARA1UEC","<p style=""font-size: 48px;"">+</p>","","","","","null","allTrialResponses","500","1","15","img_art/26.jpg","37","I like this I find it pleasant and calming to look at.","Alejandro,Christian,Connor,Juan,Cameron,Brian","Do not like water colors at all,-50,80,20","love the ""lowkey"" vibrant colors that are colorful but at the same time greyscale,12,140,20","City scene in a park,23,240,20","Something I'd see in a thrift store. It looks like not much effort was used to paint this.,9,260,20","street scene is okay?,15,60,20","I'm not really into landscapes unless I have a personal connection to them,-21,380,20","Christian","love the ""lowkey"" vibrant colors that are colorful but at the same time greyscale,12,140,20","Connor","City scene in a park,23,240,20","Juan","Something I'd see in a thrift store. It looks like not much effort was used to paint this.,9,260,20","4"
"6446","","survey-text","153","1328592","0.0-151.0-0.0","AUZNL6ARA1UEC","","","","{""Q0"":""course""}","","","","","","","","","","","","","","","","","","","","","","",""
"14848","","survey-text","154","1343444","0.0-152.0-0.0","AUZNL6ARA1UEC","","","","{""Q0"":""Too much going on for me.""}","","","","","","","","","","","","","","","","","","","","","","",""
"3311.3999996185303","","image-slider-response","155","1346760","0.0-153.0","AUZNL6ARA1UEC","","","","","-39","","","","","","","","","","","","","","","","","","","","","",""
"null","","image-button-response","156","1351765","0.0-154.0","AUZNL6ARA1UEC","img_art/19.jpg","null","","","","","","","","","","","","","","","","","","","","","","","","",""
"5626","","image-button-response","157","1357397","0.0-155.0","AUZNL6ARA1UEC","img_art/19.jpg","4","","","","","","","","","","","","","","","","","","","","","","","","",""
"5444","","image-button-response","158","1362847","0.0-156.0-0.0","AUZNL6ARA1UEC","img_art/19.jpg","3","","","","","","","","","","","","","","","","","","","","","","","","",""
"5072","","image-button-response","159","1367925","0.0-157.0-0.0","AUZNL6ARA1UEC","img_art/19.jpg","1","","","","","","","","","","","","","","","","","","","","","","","","",""
"null","","html-keyboard-response","160","1368428","0.0-158.0","AUZNL6ARA1UEC","<p style=""font-size: 48px;"">+</p>","","","","","null","allTrialResponses","500","1","16","img_art/19.jpg","-39","Too much going on for me.","Spencer,Christian,Connor,Juan,John,Aaron","Very abstract but I like it, it's busy, lots of colors,43,120,20","interesting take on depth (reminds me of those 1000 piece puzzles),2,140,20","Childish music hall,-20,240,20","Again, this is too abstract.,-10,260,20","There's alot of elements to it bordering on clutter and chaotic,-20,120,20","I like the shapes.,22,20,20","John","There's alot of elements to it bordering on clutter and chaotic,-20,120,20","Juan","Again, this is too abstract.,-10,260,20","Christian","interesting take on depth (reminds me of those 1000 piece puzzles),2,140,20","4"
"23841","","survey-text","161","1392281","0.0-159.0-0.0","AUZNL6ARA1UEC","","","","{""Q0"":""This looks like it didn't take much skill or thought.""}","","","","","","","","","","","","","","","","","","","","","","",""
"4774.5","","image-slider-response","162","1397060","0.0-160.0","AUZNL6ARA1UEC","","","","","-50","","","","","","","","","","","","","","","","","","","","","",""
"null","","image-button-response","163","1402065","0.0-161.0","AUZNL6ARA1UEC","img_art/2.jpg","null","","","","","","","","","","","","","","","","","","","","","","","","",""
"7260","","image-button-response","164","1409331","0.0-162.0","AUZNL6ARA1UEC","img_art/2.jpg","3","","","","","","","","","","","","","","","","","","","","","","","","",""
"2335","","image-button-response","165","1411671","0.0-163.0-0.0","AUZNL6ARA1UEC","img_art/2.jpg","1","","","","","","","","","","","","","","","","","","","","","","","","",""
"1452","","image-button-response","166","1413128","0.0-164.0-0.0","AUZNL6ARA1UEC","img_art/2.jpg","2","","","","","","","","","","","","","","","","","","","","","","","","",""
"null","","html-keyboard-response","167","1413630","0.0-165.0","AUZNL6ARA1UEC","<p style=""font-size: 48px;"">+</p>","","","","","null","allTrialResponses","500","1","17","img_art/2.jpg","-50","This looks like it didn't take much skill or thought.","Evan,Christian,Adrian,Juan,John,Stephen","I feel bothered by the dark and dingy choice of colors,-22,140,20","do not understand,-21,140,20","Not a fan of the colors or the style.,-31,60,20","I don't like the abstract nature of this painting or the colors used.,-50,260,20","Its meh. Doesnt illicit any strong feelings in me,1,120,20","Colors mix nicely.,5,140,20","Juan","I don't like the abstract nature of this painting or the colors used.,-50,260,20","Christian","do not understand,-21,140,20","Adrian","Not a fan of the colors or the style.,-31,60,20","4"
"25713","","survey-text","168","1439351","0.0-166.0-0.0","AUZNL6ARA1UEC","","","","{""Q0"":""This cannot be considered art, it's just scribble.""}","","","","","","","","","","","","","","","","","","","","","","",""
"4581.300000190735","","image-slider-response","169","1443936","0.0-167.0","AUZNL6ARA1UEC","","","","","-50","","","","","","","","","","","","","","","","","","","","","",""
"null","","image-button-response","170","1448943","0.0-168.0","AUZNL6ARA1UEC","img_art/3.jpg","null","","","","","","","","","","","","","","","","","","","","","","","","",""
"5239","","image-button-response","171","1454187","0.0-169.0","AUZNL6ARA1UEC","img_art/3.jpg","3","","","","","","","","","","","","","","","","","","","","","","","","",""
"1003","","image-button-response","172","1455195","0.0-170.0-0.0","AUZNL6ARA1UEC","img_art/3.jpg","5","","","","","","","","","","","","","","","","","","","","","","","","",""
"4945","","image-button-response","173","1460145","0.0-171.0-0.0","AUZNL6ARA1UEC","img_art/3.jpg","2","","","","","","","","","","","","","","","","","","","","","","","","",""
"null","","html-keyboard-response","174","1461150","0.0-172.0","AUZNL6ARA1UEC","<p style=""font-size: 48px;"">+</p>","","","","","null","allTrialResponses","1000","1","18","img_art/3.jpg","-50","This cannot be considered art, it's just scribble.","Kenneth,Christian,Adrian,Juan,Devon,Kevin","Reminds me of blood.,-28,300,20","sorry do not understand,-26,140,20","Angry red crayons, like a child throwing a tantrum. No thanks.,-10,60,20","It makes me think of just an angry scribble. There's no beauty to it for me.,-50,260,20","good choice of color,12,400,20","That just looks like a mess..,-18,320,20","Juan","It makes me think of just an angry scribble. There's no beauty to it for me.,-50,260,20","Kevin","That just looks like a mess..,-18,320,20","Adrian","Angry red crayons, like a child throwing a tantrum. No thanks.,-10,60,20","4"
"206489","","survey-text","175","1667645","0.0-173.0-0.0","AUZNL6ARA1UEC","","","","{""Q0"":""This shows some talent and it's okay.""}","","","","","","","","","","","","","","","","","","","","","","",""
"4205.699999809265","","image-slider-response","176","1671852","0.0-174.0","AUZNL6ARA1UEC","","","","","22","","","","","","","","","","","","","","","","","","","","","",""
"null","","image-button-response","177","1676858","0.0-175.0","AUZNL6ARA1UEC","img_art/24.jpg","null","","","","","","","","","","","","","","","","","","","","","","","","",""
"9369","","image-button-response","178","1686231","0.0-176.0","AUZNL6ARA1UEC","img_art/24.jpg","4","","","","","","","","","","","","","","","","","","","","","","","","",""
"904","","image-button-response","179","1687140","0.0-177.0-0.0","AUZNL6ARA1UEC","img_art/24.jpg","5","","","","","","","","","","","","","","","","","","","","","","","","",""
"4484","","image-button-response","180","1691626","0.0-178.0-0.0","AUZNL6ARA1UEC","img_art/24.jpg","1","","","","","","","","","","","","","","","","","","","","","","","","",""
"null","","html-keyboard-response","181","1692628","0.0-179.0","AUZNL6ARA1UEC","<p style=""font-size: 48px;"">+</p>","","","","","null","allTrialResponses","1000","1","19","img_art/24.jpg","22","This shows some talent and it's okay.","Dakota,Thomas,Adrian,Juan,Matthew,Kevin","chunky fresh color,27,280,20","Beautiful colors and texture,20,220,20","I like the colors and see a stream in a wooded setting. Makes me feel calm and cheerful.,27,60,20","I love the colors, but I wish the water was less abstract.,17,260,20","NOt quite Bob Ross, but still good.,30,120,20","What a nice refreshing waterfall.,39,320,20","Matthew","NOt quite Bob Ross, but still good.,30,120,20","Kevin","What a nice refreshing waterfall.,39,320,20","Thomas","Beautiful colors and texture,20,220,20","4"
"14233","","survey-text","182","1706875","0.0-180.0-0.0","AUZNL6ARA1UEC","","","","{""Q0"":""This does nothing for me.""}","","","","","","","","","","","","","","","","","","","","","","",""
"3208.1000003814697","","image-slider-response","183","1710087","0.0-181.0","AUZNL6ARA1UEC","","","","","-2","","","","","","","","","","","","","","","","","","","","","",""
"null","","image-button-response","184","1715091","0.0-182.0","AUZNL6ARA1UEC","img_art/14.jpg","null","","","","","","","","","","","","","","","","","","","","","","","","",""
"18595","","image-button-response","185","1733689","0.0-183.0","AUZNL6ARA1UEC","img_art/14.jpg","3","","","","","","","","","","","","","","","","","","","","","","","","",""
"2127","","image-button-response","186","1735823","0.0-184.0-0.0","AUZNL6ARA1UEC","img_art/14.jpg","0","","","","","","","","","","","","","","","","","","","","","","","","",""
"3903","","image-button-response","187","1739729","0.0-185.0-0.0","AUZNL6ARA1UEC","img_art/14.jpg","1","","","","","","","","","","","","","","","","","","","","","","","","",""
"null","","html-keyboard-response","188","1741234","0.0-186.0","AUZNL6ARA1UEC","<p style=""font-size: 48px;"">+</p>","","","","","null","allTrialResponses","1500","1","20","img_art/14.jpg","-2","This does nothing for me.","Chase,Thomas,Trevor,Adam,Matthew,Kevin","It kind of looks like a tree but I feel very netural.,0,120,20","I like the colors in the background, but not the bottom/center. It almost looks sloppy.,-20,220,20","has a tree look to it and it's colors are happy,9,280,20","Very abstract. Unsure of what I'm looking at. No emotions towards it.,-6,40,20","I like the color tone, it's kind of disturbing.,35,120,20","The pirates ship is sinking.,27,320,20","Adam","Very abstract. Unsure of what I'm looking at. No emotions towards it.,-6,40,20","Chase","It kind of looks like a tree but I feel very netural.,0,120,20","Thomas","I like the colors in the background, but not the bottom/center. It almost looks sloppy.,-20,220,20","4"
"4057","","survey-text","189","1745311","0.0-187.0-0.0","AUZNL6ARA1UEC","","","","{""Q0"":""we""}","","","","","","","","","","","","","","","","","","","","","","",""
"15715","","survey-text","190","1761030","0.0-188.0-0.0","AUZNL6ARA1UEC","","","","{""Q0"":""Too dark for me, don't care for it.""}","","","","","","","","","","","","","","","","","","","","","","",""
"6993.800000190735","","image-slider-response","191","1768028","0.0-189.0","AUZNL6ARA1UEC","","","","","-37","","","","","","","","","","","","","","","","","","","","","",""
"null","","image-button-response","192","1773033","0.0-190.0","AUZNL6ARA1UEC","img_art/20.jpg","null","","","","","","","","","","","","","","","","","","","","","","","","",""
"15626","","image-button-response","193","1788663","0.0-191.0","AUZNL6ARA1UEC","img_art/20.jpg","0","","","","","","","","","","","","","","","","","","","","","","","","",""
"3837","","image-button-response","194","1792504","0.0-192.0-0.0","AUZNL6ARA1UEC","img_art/20.jpg","4","","","","","","","","","","","","","","","","","","","","","","","","",""
"5790","","image-button-response","195","1798295","0.0-193.0-0.0","AUZNL6ARA1UEC","img_art/20.jpg","3","","","","","","","","","","","","","","","","","","","","","","","","",""
"null","","html-keyboard-response","196","1799298","0.0-194.0","AUZNL6ARA1UEC","<p style=""font-size: 48px;"">+</p>","","","","","null","allTrialResponses","1000","1","21","img_art/20.jpg","-37","Too dark for me, don't care for it.","Chase,Thomas,Isaac,Adam,Jason,William","Looks like a refinery dumping shit into the water.,-40,120,20","I really enjoy the contrast of colors (blue/red/orange),30,220,20","It is abstract but it looks neat.,15,280,20","Melty picture. Reminiscent of Dali.,10,40,20","The picture looks smudged and dirty,-4,20,20","like the colors and desert feel,7,380,20","Chase","Looks like a refinery dumping shit into the water.,-40,120,20","Jason","The picture looks smudged and dirty,-4,20,20","Adam","Melty picture. Reminiscent of Dali.,10,40,20","4"
"42387","","survey-text","197","1841693","0.0-195.0-0.0","AUZNL6ARA1UEC","","","","{""Q0"":""I just don't like it. Too abstract I guess.""}","","","","","","","","","","","","","","","","","","","","","","",""
"3336.0999994277954","","image-slider-response","198","1845034","0.0-196.0","AUZNL6ARA1UEC","","","","","-37","","","","","","","","","","","","","","","","","","","","","",""
"null","","image-button-response","199","1850037","0.0-197.0","AUZNL6ARA1UEC","img_art/9.jpg","null","","","","","","","","","","","","","","","","","","","","","","","","",""
"14063","","image-button-response","200","1864103","0.0-198.0","AUZNL6ARA1UEC","img_art/9.jpg","1","","","","","","","","","","","","","","","","","","","","","","","","",""
"6222","","image-button-response","201","1870329","0.0-199.0-0.0","AUZNL6ARA1UEC","img_art/9.jpg","3","","","","","","","","","","","","","","","","","","","","","","","","",""
"2083","","image-button-response","202","1872416","0.0-200.0-0.0","AUZNL6ARA1UEC","img_art/9.jpg","5","","","","","","","","","","","","","","","","","","","","","","","","",""
"null","","html-keyboard-response","203","1873918","0.0-201.0","AUZNL6ARA1UEC","<p style=""font-size: 48px;"">+</p>","","","","","null","allTrialResponses","1500","1","22","img_art/9.jpg","-37","I just don't like it. Too abstract I guess.","Chase,Nathaniel,Grant,Adam,Jason,Edward","Looks like a sloppy iguana.,-11,120,20","Not very enticing. No real substance other than a lady laying down,-35,220,20","The colors are pretty, and remind me of a circus.,5,200,20","Very eclectic and messy. Not my preference, but may work for some.,-20,40,20","Focal point is interesting,2,20,20","The colors remind me of peacocks,24,60,20","Nathaniel","Not very enticing. No real substance other than a lady laying down,-35,220,20","Adam","Very eclectic and messy. Not my preference, but may work for some.,-20,40,20","Edward","The colors remind me of peacocks,24,60,20","4"
"18646","","survey-text","204","1892573","0.0-202.0-0.0","AUZNL6ARA1UEC","","","","{""Q0"":""I hate all the drab browns. Ugly.""}","","","","","","","","","","","","","","","","","","","","","","",""
"3932.699999809265","","image-slider-response","205","1896510","0.0-203.0","AUZNL6ARA1UEC","","","","","-50","","","","","","","","","","","","","","","","","","","","","",""
"null","","image-button-response","206","1901514","0.0-204.0","AUZNL6ARA1UEC","img_art/28.jpg","null","","","","","","","","","","","","","","","","","","","","","","","","",""
"10410","","image-button-response","207","1911928","0.0-205.0","AUZNL6ARA1UEC","img_art/28.jpg","4","","","","","","","","","","","","","","","","","","","","","","","","",""
"3343","","image-button-response","208","1915274","0.0-206.0-0.0","AUZNL6ARA1UEC","img_art/28.jpg","3","","","","","","","","","","","","","","","","","","","","","","","","",""
"3844","","image-button-response","209","1919121","0.0-207.0-0.0","AUZNL6ARA1UEC","img_art/28.jpg","2","","","","","","","","","","","","","","","","","","","","","","","","",""
"null","","html-keyboard-response","210","1919624","0.0-208.0","AUZNL6ARA1UEC","<p style=""font-size: 48px;"">+</p>","","","","","null","allTrialResponses","500","1","23","img_art/28.jpg","-50","I hate all the drab browns. Ugly.","Brandon,Nathaniel,Austin,Adam,Joshua,Edward","Interesting. I like the ""old woman"" on the left. Lots of different entities to look at,21,320,20","Has an air of darkness to it, but no real substance besides the mouse-like thing.,-38,220,20","Not really exciting,23,240,20","Dislike the colors.,-20,40,20","The colors are drab and a little depressing.,-20,240,20","Salvador Dali called and he thinks this looks pretty good,27,60,20","Joshua","The colors are drab and a little depressing.,-20,240,20","Adam","Dislike the colors.,-20,40,20","Austin","Not really exciting,23,240,20","4"
"20535","","survey-text","211","1940167","0.0-209.0-0.0","AUZNL6ARA1UEC","","","","{""Q0"":""It's just strange. Unappealing.""}","","","","","","","","","","","","","","","","","","","","","","",""
"3455.199999809265","","image-slider-response","212","1943627","0.0-210.0","AUZNL6ARA1UEC","","","","","-46","","","","","","","","","","","","","","","","","","","","","",""
"null","","image-button-response","213","1948633","0.0-211.0","AUZNL6ARA1UEC","img_art/10.jpg","null","","","","","","","","","","","","","","","","","","","","","","","","",""
"3107","","image-button-response","214","1951745","0.0-212.0","AUZNL6ARA1UEC","img_art/10.jpg","0","","","","","","","","","","","","","","","","","","","","","","","","",""
"1643","","image-button-response","215","1953392","0.0-213.0-0.0","AUZNL6ARA1UEC","img_art/10.jpg","5","","","","","","","","","","","","","","","","","","","","","","","","",""
"1460","","image-button-response","216","1954857","0.0-214.0-0.0","AUZNL6ARA1UEC","img_art/10.jpg","1","","","","","","","","","","","","","","","","","","","","","","","","",""
"null","","html-keyboard-response","217","1956360","0.0-215.0","AUZNL6ARA1UEC","<p style=""font-size: 48px;"">+</p>","","","","","null","allTrialResponses","1500","1","24","img_art/10.jpg","-46","It's just strange. Unappealing.","Jared,Patrick,Austin,Adam,Joshua,Michael","it just doesnt appeal to me.,-10,400,20","I don't like the colors,-20,280,20","Has an air of mystery around it,39,240,20","I like the contrast,10,40,20","This one is interesting. I like it.,11,240,20","Ugly and low skill. I wouldn't want it.,-50,140,20","Jared","it just doesnt appeal to me.,-10,400,20","Michael","Ugly and low skill. I wouldn't want it.,-50,140,20","Patrick","I don't like the colors,-20,280,20","4"
"18514","","survey-text","218","1974881","0.0-216.0-0.0","AUZNL6ARA1UEC","","","","{""Q0"":""Another one that takes no skill.""}","","","","","","","","","","","","","","","","","","","","","","",""
"7252","","image-slider-response","219","1982137","0.0-217.0","AUZNL6ARA1UEC","","","","","-50","","","","","","","","","","","","","","","","","","","","","",""
"null","","image-button-response","220","1987144","0.0-218.0","AUZNL6ARA1UEC","img_art/30.jpg","null","","","","","","","","","","","","","","","","","","","","","","","","",""
"2008","","image-button-response","221","1989156","0.0-219.0","AUZNL6ARA1UEC","img_art/30.jpg","5","","","","","","","","","","","","","","","","","","","","","","","","",""
"1795","","image-button-response","222","1990955","0.0-220.0-0.0","AUZNL6ARA1UEC","img_art/30.jpg","4","","","","","","","","","","","","","","","","","","","","","","","","",""
"3867","","image-button-response","223","1994827","0.0-221.0-0.0","AUZNL6ARA1UEC","img_art/30.jpg","0","","","","","","","","","","","","","","","","","","","","","","","","",""
"null","","html-keyboard-response","224","1995329","0.0-222.0","AUZNL6ARA1UEC","<p style=""font-size: 48px;"">+</p>","","","","","null","allTrialResponses","500","1","25","img_art/30.jpg","-50","Another one that takes no skill.","Jared,Patrick,Andrew,Luis,Colton,Michael","i dont like how the colors are mixed,-6,400,20","I don't like the blended colors,-20,280,20","It's a really interesting piece,20,160,20","Flowing freely of the rest of the world,42,400,20","too segmented, looks sloppy,-37,220,20","It looks like a child did it. There is nothing talented or special about it.,-16,140,20","Michael","It looks like a child did it. There is nothing talented or special about it.,-16,140,20","Colton","too segmented, looks sloppy,-37,220,20","Jared","i dont like how the colors are mixed,-6,400,20","4"
"5607","","survey-text","225","2000956","0.0-223.0-0.0","AUZNL6ARA1UEC","","","","{""Q0"":""table""}","","","","","","","","","","","","","","","","","","","","","","",""
"37174","","survey-text","226","2038133","0.0-224.0-0.0","AUZNL6ARA1UEC","","","","{""Q0"":""Reminds me of musical notes. Actually like it.""}","","","","","","","","","","","","","","","","","","","","","","",""
"3063.800000190735","","image-slider-response","227","2041201","0.0-225.0","AUZNL6ARA1UEC","","","","","35","","","","","","","","","","","","","","","","","","","","","",""
"null","","image-button-response","228","2046204","0.0-226.0","AUZNL6ARA1UEC","img_art/11.jpg","null","","","","","","","","","","","","","","","","","","","","","","","","",""
"7764","","image-button-response","229","2053970","0.0-227.0","AUZNL6ARA1UEC","img_art/11.jpg","0","","","","","","","","","","","","","","","","","","","","","","","","",""
"3161","","image-button-response","230","2057135","0.0-228.0-0.0","AUZNL6ARA1UEC","img_art/11.jpg","4","","","","","","","","","","","","","","","","","","","","","","","","",""
"4783","","image-button-response","231","2061922","0.0-229.0-0.0","AUZNL6ARA1UEC","img_art/11.jpg","5","","","","","","","","","","","","","","","","","","","","","","","","",""
"null","","html-keyboard-response","232","2062426","0.0-230.0","AUZNL6ARA1UEC","<p style=""font-size: 48px;"">+</p>","","","","","null","allTrialResponses","500","1","26","img_art/11.jpg","35","Reminds me of musical notes. Actually like it.","Jared,Joseph,Elijah,Marcus,Colton,Michael","i like the colors and patters and waves,5,400,20","I like that it could be train tracks, or telephone wires, etc. It's always a means of getting from a to b.,15,220,20","Very cool, makes me feel good,39,80,20","I like this one very much, especially the shades of gray.,30,60,20","the wavy lines are nice and pleasing,13,220,20","It's kind of cool and I see it looks clean.,22,140,20","Jared","i like the colors and patters and waves,5,400,20","Colton","the wavy lines are nice and pleasing,13,220,20","Michael","It's kind of cool and I see it looks clean.,22,140,20","4"
"27228","","survey-text","233","2089660","0.0-231.0-0.0","AUZNL6ARA1UEC","","","","{""Q0"":""Not anything interesting about this art to me.""}","","","","","","","","","","","","","","","","","","","","","","",""
"4013.699999809265","","image-slider-response","234","2093678","0.0-232.0","AUZNL6ARA1UEC","","","","","-34","","","","","","","","","","","","","","","","","","","","","",""
"null","","image-button-response","235","2098684","0.0-233.0","AUZNL6ARA1UEC","img_art/15.jpg","null","","","","","","","","","","","","","","","","","","","","","","","","",""
"7834","","image-button-response","236","2106523","0.0-234.0","AUZNL6ARA1UEC","img_art/15.jpg","0","","","","","","","","","","","","","","","","","","","","","","","","",""
"2389","","image-button-response","237","2108916","0.0-235.0-0.0","AUZNL6ARA1UEC","img_art/15.jpg","2","","","","","","","","","","","","","","","","","","","","","","","","",""
"1275","","image-button-response","238","2110196","0.0-236.0-0.0","AUZNL6ARA1UEC","img_art/15.jpg","5","","","","","","","","","","","","","","","","","","","","","","","","",""
"null","","html-keyboard-response","239","2110699","0.0-237.0","AUZNL6ARA1UEC","<p style=""font-size: 48px;"">+</p>","","","","","null","allTrialResponses","500","1","27","img_art/15.jpg","-34","Not anything interesting about this art to me.","Jared,Timothy,Brett,Isaiah,Colton,Michael","i cant find somthing ilike about it,-31,400,20","This painting gives a calm vibe but no stronger emotions than that,10,240,20","I don't know how I feel about this,31,360,20","The painting is very relaxing, I'm reminded of sitting in a garden in the evening.,8,300,20","it's alright but a little cluttered,14,220,20","Looks incomplete.,-19,140,20","Jared","i cant find somthing ilike about it,-31,400,20","Brett","I don't know how I feel about this,31,360,20","Michael","Looks incomplete.,-19,140,20","4"
"29712","","survey-text","240","2140419","0.0-238.0-0.0","AUZNL6ARA1UEC","","","","{""Q0"":""Just plain ugly. Who would want that on their wall?""}","","","","","","","","","","","","","","","","","","","","","","",""
"3588.1000003814697","","image-slider-response","241","2144012","0.0-239.0","AUZNL6ARA1UEC","","","","","-48","","","","","","","","","","","","","","","","","","","","","",""
"null","","image-button-response","242","2149019","0.0-240.0","AUZNL6ARA1UEC","img_art/12.jpg","null","","","","","","","","","","","","","","","","","","","","","","","","",""
"9510","","image-button-response","243","2158533","0.0-241.0","AUZNL6ARA1UEC","img_art/12.jpg","0","","","","","","","","","","","","","","","","","","","","","","","","",""
"9107","","image-button-response","244","2167643","0.0-242.0-0.0","AUZNL6ARA1UEC","img_art/12.jpg","1","","","","","","","","","","","","","","","","","","","","","","","","",""
"6306","","image-button-response","245","2173954","0.0-243.0-0.0","AUZNL6ARA1UEC","img_art/12.jpg","2","","","","","","","","","","","","","","","","","","","","","","","","",""
"null","","html-keyboard-response","246","2174458","0.0-244.0","AUZNL6ARA1UEC","<p style=""font-size: 48px;"">+</p>","","","","","null","allTrialResponses","500","1","28","img_art/12.jpg","-48","Just plain ugly. Who would want that on their wall?","Jared,Caleb,Brett,Jesus,Robert,Michael","i dont see the point.,-19,400,20","Almost natural flowing between abstract sections.,27,40,20","Night and day, light and dark,35,360,20","I like the color scheme.,10,100,20","I like the pattern to it.,31,360,20","Not quite my style but there more of a pattern and it is interesting to look at.,15,140,20","Jared","i dont see the point.,-19,400,20","Caleb","Almost natural flowing between abstract sections.,27,40,20","Brett","Night and day, light and dark,35,360,20","4"
"19138","","survey-text","247","2193605","0.0-245.0-0.0","AUZNL6ARA1UEC","","","","{""Q0"":""Doesn't look like anything to me. Boring.""}","","","","","","","","","","","","","","","","","","","","","","",""
"2981.4000005722046","","image-slider-response","248","2196590","0.0-246.0","AUZNL6ARA1UEC","","","","","-41","","","","","","","","","","","","","","","","","","","","","",""
"null","","image-button-response","249","2201596","0.0-247.0","AUZNL6ARA1UEC","img_art/1.jpg","null","","","","","","","","","","","","","","","","","","","","","","","","",""
"21216","","image-button-response","250","2222816","0.0-248.0","AUZNL6ARA1UEC","img_art/1.jpg","0","","","","","","","","","","","","","","","","","","","","","","","","",""
"1485","","image-button-response","251","2224307","0.0-249.0-0.0","AUZNL6ARA1UEC","img_art/1.jpg","4","","","","","","","","","","","","","","","","","","","","","","","","",""
"3414","","image-button-response","252","2227726","0.0-250.0-0.0","AUZNL6ARA1UEC","img_art/1.jpg","5","","","","","","","","","","","","","","","","","","","","","","","","",""
"null","","html-keyboard-response","253","2228229","0.0-251.0","AUZNL6ARA1UEC","<p style=""font-size: 48px;"">+</p>","","","","","null","allTrialResponses","500","1","29","img_art/1.jpg","-41","Doesn't look like anything to me. Boring.","Jared,Caleb,Brett,Sean,Zachary,Noah","there isnt anything clear to look at,-2,400,20","Its simply okay.,3,40,20","I don't know how I feel about this,1,360,20","my reaction is that the picture is that Ive seen it before,-14,40,20","While I like the colors, I find nothing interesting or thought provoking about it.,10,400,20","the bright colours evoke the 90s, and not their best part,-10,260,20","Jared","there isnt anything clear to look at,-2,400,20","Zachary","While I like the colors, I find nothing interesting or thought provoking about it.,10,400,20","Noah","the bright colours evoke the 90s, and not their best part,-10,260,20","4"
"23827","","survey-text","254","2252065","0.0-252.0-0.0","AUZNL6ARA1UEC","","","","{""Q0"":""If I painted this I would give up and throw it out.""}","","","","","","","","","","","","","","","","","","","","","","",""
"2765.300000190735","","image-slider-response","255","2254835","0.0-253.0","AUZNL6ARA1UEC","","","","","-50","","","","","","","","","","","","","","","","","","","","","",""
"null","","image-button-response","256","2259841","0.0-254.0","AUZNL6ARA1UEC","img_art/21.jpg","null","","","","","","","","","","","","","","","","","","","","","","","","",""
"14829","","image-button-response","257","2274673","0.0-255.0","AUZNL6ARA1UEC","img_art/21.jpg","3","","","","","","","","","","","","","","","","","","","","","","","","",""
"1598","","image-button-response","258","2276276","0.0-256.0-0.0","AUZNL6ARA1UEC","img_art/21.jpg","2","","","","","","","","","","","","","","","","","","","","","","","","",""
"12877","","image-button-response","259","2289158","0.0-257.0-0.0","AUZNL6ARA1UEC","img_art/21.jpg","5","","","","","","","","","","","","","","","","","","","","","","","","",""
"null","","html-keyboard-response","260","2290660","0.0-258.0","AUZNL6ARA1UEC","<p style=""font-size: 48px;"">+</p>","","","","","null","allTrialResponses","1500","1","30","img_art/21.jpg","-50","If I painted this I would give up and throw it out.","Jared,Bryan,Brendan,Bradley,Zachary,Noah","i like the way the colors divide the canvas.,16,400,20","Like the colors, the cloudy, airy effects. Nice.,46,400,20","looks like a sea during some war,27,340,20","Indifferent toward this one.,6,300,20","Looks like a body of water during a sunset. I like this piece.,21,400,20","brings up imagery of the sea and clashing, though not in a negative way,31,260,20","Bradley","Indifferent toward this one.,6,300,20","Brendan","looks like a sea during some war,27,340,20","Noah","brings up imagery of the sea and clashing, though not in a negative way,31,260,20","4"
"3096","","image-button-response_instructions","261","2293764","0.0-259.0","AUZNL6ARA1UEC","","0","instructions","","","","","","","","","","","","","","","","","","","","","","","",""
"1444","","image-button-response","262","2295219","0.0-260.0","AUZNL6ARA1UEC","","0","","","","","","","","","","","","","","","","","","","","","","","","",""
