"rt","url","trial_type","trial_index","time_elapsed","internal_node_id","participant_id","stimulus","button_pressed","Name","responses","response","key_press","variableName","fixationTime","condition","trial","photo","subjectRating","subjectResponse","agentsNames","agent_1_Response","agent_2_Response","agent_3_Response","agent_4_Response","agent_5_Response","agent_6_Response","kept_1_name","kept_1_response","kept_2_name","kept_2_response","kept_3_name","kept_3_response","errorCounter"
"17176","external_page_harvard.html","external-html","0","17234","0.0-0.0","AUZR1WE01VEBT","","","","","","","","","","","","","","","","","","","","","","","","","","",""
"1771","","image-button-response","1","19007","0.0-1.0","AUZR1WE01VEBT","","1","","","","","","","","","","","","","","","","","","","","","","","","",""
"2187","","image-button-response","2","21198","0.0-2.0-0.0","AUZR1WE01VEBT","","1","phone","","","","","","","","","","","","","","","","","","","","","","","",""
"8326","","survey-text","3","29525","0.0-3.0-0.0","AUZR1WE01VEBT","","","","{""Q0"":""AUZR1WE01VEBT""}","","","","","","","","","","","","","","","","","","","","","","",""
"3346","","image-button-response_instructions","4","32872","0.0-4.0","AUZR1WE01VEBT","","0","instructions","","","","","","","","","","","","","","","","","","","","","","","",""
"15002","","image-button-response_instructions","5","47877","0.0-5.0","AUZR1WE01VEBT","img_art/ins/popularity/ins1.png","0","instructions","","","","","","","","","","","","","","","","","","","","","","","",""
"7447","","image-button-response_instructions","6","55324","0.0-6.0","AUZR1WE01VEBT","img_art/ins/popularity/ins2.png","0","instructions","","","","","","","","","","","","","","","","","","","","","","","",""
"6251","","image-button-response_instructions","7","61577","0.0-7.0","AUZR1WE01VEBT","img_art/ins/popularity/ins2Extreme.png","0","instructions","","","","","","","","","","","","","","","","","","","","","","","",""
"9247","","image-button-response_instructions","8","70825","0.0-8.0","AUZR1WE01VEBT","img_art/ins/popularity/ins3KEEPpop.PNG","0","instructions","","","","","","","","","","","","","","","","","","","","","","","",""
"4841","","image-button-response_instructions","9","75667","0.0-9.0","AUZR1WE01VEBT","img_art/ins/popularity/ins3ANamepop.PNG","0","instructions","","","","","","","","","","","","","","","","","","","","","","","",""
"3629","","image-button-response_instructions","10","79297","0.0-10.0","AUZR1WE01VEBT","img_art/ins/popularity/ins3ARatingpop.png","0","instructions","","","","","","","","","","","","","","","","","","","","","","","",""
"3784","","image-button-response_instructions","11","83082","0.0-11.0","AUZR1WE01VEBT","img_art/ins/popularity/ins3ATextpop.png","0","instructions","","","","","","","","","","","","","","","","","","","","","","","",""
"4316","","image-button-response_instructions","12","87399","0.0-12.0","AUZR1WE01VEBT","img_art/ins/popularity/ins3ALikespop.png","0","instructions","","","","","","","","","","","","","","","","","","","","","","","",""
"8759","","image-button-response_instructions","13","96159","0.0-13.0","AUZR1WE01VEBT","img_art/ins/popularity/ins3KEEPpop.PNG","0","instructions","","","","","","","","","","","","","","","","","","","","","","","",""
"5908","","image-button-response_instructions","14","102069","0.0-14.0","AUZR1WE01VEBT","img_art/ins/popularity/ins3_5RED.png","0","instructions","","","","","","","","","","","","","","","","","","","","","","","",""
"4684","","image-button-response_instructions","15","106754","0.0-15.0","AUZR1WE01VEBT","img_art/ins/popularity/ins3KEEPpop.PNG","0","instructions","","","","","","","","","","","","","","","","","","","","","","","",""
"5646","","image-button-response_instructions","16","112400","0.0-16.0","AUZR1WE01VEBT","img_art/ins/popularity/ins4KEEPpop.PNG","0","instructions","","","","","","","","","","","","","","","","","","","","","","","",""
"3093","","image-button-response_instructions","17","115495","0.0-17.0","AUZR1WE01VEBT","img_art/ins/popularity/ins5KEEPpop.PNG","0","instructions","","","","","","","","","","","","","","","","","","","","","","","",""
"1744","","image-button-response_instructions","18","117240","0.0-18.0","AUZR1WE01VEBT","","0","instructions","","","","","","","","","","","","","","","","","","","","","","","",""
"6655","","survey-text","19","123923","0.0-19.0-0.0","AUZR1WE01VEBT","","","","{""Q0"":""but""}","","","","","","","","","","","","","","","","","","","","","","",""
"9810","","survey-text","20","133734","0.0-20.0-0.0","AUZR1WE01VEBT","","","","{""Q0"":""To busy for me""}","","","","","","","","","","","","","","","","","","","","","","",""
"6260.5","","image-slider-response","21","139997","0.0-21.0","AUZR1WE01VEBT","","","","","-27","","","","","","","","","","","","","","","","","","","","","",""
"4956","","image-button-response","22","145002","0.0-22.0","AUZR1WE01VEBT","img_art/ins/1.jpg","0","","","","","","","","","","","","","","","","","","","","","","","","",""
"3273","","image-button-response","23","148277","0.0-23.0","AUZR1WE01VEBT","img_art/ins/1.jpg","2","","","","","","","","","","","","","","","","","","","","","","","","",""
"860","","image-button-response","24","149140","0.0-24.0-0.0","AUZR1WE01VEBT","img_art/ins/1.jpg","2","","","","","","","","","","","","","","","","","","","","","","","","",""
"4712","","image-button-response","25","157970","0.0-24.1-0.1","AUZR1WE01VEBT","img_art/ins/1.jpg","0","","","","","","","","","","","","","","","","","","","","","","","","",""
"1653","","image-button-response","26","159626","0.0-25.0-0.0","AUZR1WE01VEBT","img_art/ins/1.jpg","0","","","","","","","","","","","","","","","","","","","","","","","","",""
"2123","","image-button-response","27","166192","0.0-25.1-0.1","AUZR1WE01VEBT","img_art/ins/1.jpg","1","","","","","","","","","","","","","","","","","","","","","","","","",""
"null","","html-keyboard-response","28","167195","0.0-26.0","AUZR1WE01VEBT","<p style=""font-size: 48px;"">+</p>","","","","","null","allTrialResponses","1000","1","-2","img_art/ins/1.jpg","-27","To busy for me","Allison,Ashley,Beth,Dora,Erika,Jen","looks like a lot of things going on in the mist,20,20,20","I just don't get why these type of art would be popular,-32,40,20","This color reminds me of poo,-46,60,20","looks like what my niece in 3rd grade did this afternoon,-50,80,20","I like the sophisticated brushwork,40,100,20","It reminds me of a candy land dream I had,36,120,20","Beth","This color reminds me of poo,-46,60,20","Allison","looks like a lot of things going on in the mist,20,20,20","Ashley","I just don't get why these type of art would be popular,-32,40,20","4"
"25394","","survey-text","29","192594","0.0-27.0-0.0","AUZR1WE01VEBT","","","","{""Q0"":""Kind of weird. The red is just to much""}","","","","","","","","","","","","","","","","","","","","","","",""
"3346.8999996185303","","image-slider-response","30","195942","0.0-28.0","AUZR1WE01VEBT","","","","","-39","","","","","","","","","","","","","","","","","","","","","",""
"3055","","image-button-response","31","200945","0.0-29.0","AUZR1WE01VEBT","img_art/ins/2.jpg","1","","","","","","","","","","","","","","","","","","","","","","","","",""
"5796","","image-button-response","32","206743","0.0-30.0","AUZR1WE01VEBT","img_art/ins/2.jpg","3","","","","","","","","","","","","","","","","","","","","","","","","",""
"1986","","image-button-response","33","208731","0.0-31.0-0.0","AUZR1WE01VEBT","img_art/ins/2.jpg","2","","","","","","","","","","","","","","","","","","","","","","","","",""
"3656","","image-button-response","34","212390","0.0-32.0-0.0","AUZR1WE01VEBT","img_art/ins/2.jpg","1","","","","","","","","","","","","","","","","","","","","","","","","",""
"null","","html-keyboard-response","35","212893","0.0-33.0","AUZR1WE01VEBT","<p style=""font-size: 48px;"">+</p>","","","","","null","allTrialResponses","500","1","-1","img_art/ins/2.jpg","-39","Kind of weird. The red is just to much","Allison,Ashley,Beth,Jenna,Kara,Katie","I don't have strong feelings about this,10,20,20","Idk, it is just annoying,-32,40,20","meaningless painting,-45,60,20","One of my pet peevs,-48,140,20","I like the blocks of color arrangements,30,160,20","too much color!,-28,180,20","Jenna","One of my pet peevs,-48,140,20","Beth","meaningless painting,-45,60,20","Ashley","Idk, it is just annoying,-32,40,20","4"
"18020","","survey-text","36","230916","0.0-34.0-0.0","AUZR1WE01VEBT","","","","{""Q0"":""Busy and distracting but I like the colors""}","","","","","","","","","","","","","","","","","","","","","","",""
"4923.599999904633","","image-slider-response","37","235842","0.0-35.0","AUZR1WE01VEBT","","","","","2","","","","","","","","","","","","","","","","","","","","","",""
"3443","","image-button-response","38","240845","0.0-36.0","AUZR1WE01VEBT","img_art/ins/3.jpg","0","","","","","","","","","","","","","","","","","","","","","","","","",""
"8385","","image-button-response","39","249231","0.0-37.0","AUZR1WE01VEBT","img_art/ins/3.jpg","0","","","","","","","","","","","","","","","","","","","","","","","","",""
"4415","","image-button-response","40","253649","0.0-38.0-0.0","AUZR1WE01VEBT","img_art/ins/3.jpg","4","","","","","","","","","","","","","","","","","","","","","","","","",""
"1919","","image-button-response","41","255571","0.0-39.0-0.0","AUZR1WE01VEBT","img_art/ins/3.jpg","1","","","","","","","","","","","","","","","","","","","","","","","","",""
"null","","html-keyboard-response","42","256573","0.0-40.0","AUZR1WE01VEBT","<p style=""font-size: 48px;"">+</p>","","","","","null","allTrialResponses","1000","1","0","img_art/ins/3.jpg","2","Busy and distracting but I like the colors","Leslie,Ashley,Beth,Jenna,Mary,Rose","It's an alright work,15,200,20","It looks like a playground for bats,-36,40,20","This thing gives me anxiety,-41,60,20","looks like a murder room,-35,140,20","I like the overlapping of brushes,41,220,20","My daily routine, it's depressing,-20,240,20","Leslie","It's an alright work,15,200,20","Mary","I like the overlapping of brushes,41,220,20","Ashley","It looks like a playground for bats,-36,40,20","4"
"5259","","image-button-response_instructions","43","261837","0.0-41.0","AUZR1WE01VEBT","","0","instructions","","","","","","","","","","","","","","","","","","","","","","","",""
"15129","","survey-likert","44","276968","0.0-42.0-0.0","AUZR1WE01VEBT","","","","{""Q0"":"""",""Q1"":0,""Q2"":1}","","","","","","","","","","","","","","","","","","","","","","",""
"4965","","survey-text","45","281938","0.0-43.0-0.0","AUZR1WE01VEBT","","","","{""Q0"":""rock""}","","","","","","","","","","","","","","","","","","","","","","",""
"27771","","survey-text","46","309710","0.0-44.0-0.0","AUZR1WE01VEBT","","","","{""Q0"":""Looks like black birds. Not a fan! Why is it just painted in the middle?""}","","","","","","","","","","","","","","","","","","","","","","",""
"3675.9000000953674","","image-slider-response","47","313389","0.0-45.0","AUZR1WE01VEBT","","","","","-42","","","","","","","","","","","","","","","","","","","","","",""
"3034","","image-button-response","48","318419","0.0-46.0","AUZR1WE01VEBT","img_art/15.jpg","0","","","","","","","","","","","","","","","","","","","","","","","","",""
"650","","image-button-response","49","319071","0.0-47.0","AUZR1WE01VEBT","img_art/15.jpg","0","","","","","","","","","","","","","","","","","","","","","","","","",""
"9391","","image-button-response","50","328464","0.0-48.0-0.0","AUZR1WE01VEBT","img_art/15.jpg","1","","","","","","","","","","","","","","","","","","","","","","","","",""
"852","","image-button-response","51","329319","0.0-49.0-0.0","AUZR1WE01VEBT","img_art/15.jpg","2","","","","","","","","","","","","","","","","","","","","","","","","",""
"null","","html-keyboard-response","52","329821","0.0-50.0","AUZR1WE01VEBT","<p style=""font-size: 48px;"">+</p>","","","","","null","allTrialResponses","500","1","1","img_art/15.jpg","-42","Looks like black birds. Not a fan! Why is it just painted in the middle?","Courtney,Stephanie,Brittany,Bailey,Mary,Meghan","Weird fuzzball bush.,22,280,20","This piece is too dark,-42,300,20","Color scheme and design are rather boring.,-10,40,20","This is passable, but personally it just has nothing I'd like to see.,-14,360,20","This piece gave me no emotion. It's ugly to me.,-38,180,20","I like the pattern of it,11,220,20","Courtney","Weird fuzzball bush.,22,280,20","Stephanie","This piece is too dark,-42,300,20","Brittany","Color scheme and design are rather boring.,-10,40,20","4"
"19699","","survey-text","53","349525","0.0-51.0-0.0","AUZR1WE01VEBT","","","","{""Q0"":""Looks like it was trying to be something but failed. I don't like it""}","","","","","","","","","","","","","","","","","","","","","","",""
"3732.300000190735","","image-slider-response","54","353259","0.0-52.0","AUZR1WE01VEBT","","","","","-25","","","","","","","","","","","","","","","","","","","","","",""
"1928","","image-button-response","55","358262","0.0-53.0","AUZR1WE01VEBT","img_art/14.jpg","0","","","","","","","","","","","","","","","","","","","","","","","","",""
"797","","image-button-response","56","359060","0.0-54.0","AUZR1WE01VEBT","img_art/14.jpg","0","","","","","","","","","","","","","","","","","","","","","","","","",""
"4116","","image-button-response","57","363179","0.0-55.0-0.0","AUZR1WE01VEBT","img_art/14.jpg","5","","","","","","","","","","","","","","","","","","","","","","","","",""
"34060","","image-button-response","58","397242","0.0-56.0-0.0","AUZR1WE01VEBT","img_art/14.jpg","3","","","","","","","","","","","","","","","","","","","","","","","","",""
"null","","html-keyboard-response","59","398745","0.0-57.0","AUZR1WE01VEBT","<p style=""font-size: 48px;"">+</p>","","","","","null","allTrialResponses","1500","1","2","img_art/14.jpg","-25","Looks like it was trying to be something but failed. I don't like it","Courtney,Stephanie,Brittany,Morgan,Kaitlin,Michelle","The pirates ship is sinking.,27,280,20","Late Winter when things are just starting to bloom.,21,300,20","The colors are good and the design is intriguing.,15,40,20","Angled, colored, boxy.,10,380,20","this would make a very beautiful art project,22,60,20","Too abstract with annoying little details. Just draw a regular tree already,-6,280,20","Courtney","The pirates ship is sinking.,27,280,20","Michelle","Too abstract with annoying little details. Just draw a regular tree already,-6,280,20","Morgan","Angled, colored, boxy.,10,380,20","4"
"12955","","survey-text","60","411704","0.0-58.0-0.0","AUZR1WE01VEBT","","","","{""Q0"":""omg no, just no. This freaks me out. ""}","","","","","","","","","","","","","","","","","","","","","","",""
"5528.799999713898","","image-slider-response","61","417235","0.0-59.0","AUZR1WE01VEBT","","","","","-50","","","","","","","","","","","","","","","","","","","","","",""
"3160","","image-button-response","62","422240","0.0-60.0","AUZR1WE01VEBT","img_art/3.jpg","1","","","","","","","","","","","","","","","","","","","","","","","","",""
"4653","","image-button-response","63","426895","0.0-61.0","AUZR1WE01VEBT","img_art/3.jpg","2","","","","","","","","","","","","","","","","","","","","","","","","",""
"3397","","image-button-response","64","430295","0.0-62.0-0.0","AUZR1WE01VEBT","img_art/3.jpg","1","","","","","","","","","","","","","","","","","","","","","","","","",""
"6915","","image-button-response","65","437213","0.0-63.0-0.0","AUZR1WE01VEBT","img_art/3.jpg","4","","","","","","","","","","","","","","","","","","","","","","","","",""
"null","","html-keyboard-response","66","438716","0.0-64.0","AUZR1WE01VEBT","<p style=""font-size: 48px;"">+</p>","","","","","null","allTrialResponses","1500","1","3","img_art/3.jpg","-50","omg no, just no. This freaks me out. ","Courtney,Rachel,Samantha,Morgan,Alexandra,Michelle","That just looks like a mess..,-18,280,20","Too red and chaotic. Not calming.,-41,80,20","Too angry and scribbly,-43,140,20","Somewhere between a child's art and a poorly drawn battle map.,8,380,20","I could scribble on paper and mimic this,-48,60,20","Ok, just a bunch of red lines and a grey smudge. Would pass this right by in a gallery,-12,280,20","Samantha","Too angry and scribbly,-43,140,20","Rachel","Too red and chaotic. Not calming.,-41,80,20","Alexandra","I could scribble on paper and mimic this,-48,60,20","4"
"39939","","survey-text","67","478659","0.0-65.0-0.0","AUZR1WE01VEBT","","","","{""Q0"":""Looks like it was going to maybe be a guitar but then someone gave up. It doesn't freak me out, but I am not a huge fan""}","","","","","","","","","","","","","","","","","","","","","","",""
"3789.4000000953674","","image-slider-response","68","482450","0.0-66.0","AUZR1WE01VEBT","","","","","-10","","","","","","","","","","","","","","","","","","","","","",""
"null","","image-button-response","69","487456","0.0-67.0","AUZR1WE01VEBT","img_art/10.jpg","null","","","","","","","","","","","","","","","","","","","","","","","","",""
"2182","","image-button-response","70","489639","0.0-68.0","AUZR1WE01VEBT","img_art/10.jpg","3","","","","","","","","","","","","","","","","","","","","","","","","",""
"1479","","image-button-response","71","491121","0.0-69.0-0.0","AUZR1WE01VEBT","img_art/10.jpg","4","","","","","","","","","","","","","","","","","","","","","","","","",""
"2253","","image-button-response","72","493377","0.0-70.0-0.0","AUZR1WE01VEBT","img_art/10.jpg","5","","","","","","","","","","","","","","","","","","","","","","","","",""
"null","","html-keyboard-response","73","494880","0.0-71.0","AUZR1WE01VEBT","<p style=""font-size: 48px;"">+</p>","","","","","null","allTrialResponses","1500","1","4","img_art/10.jpg","-10","Looks like it was going to maybe be a guitar but then someone gave up. It doesn't freak me out, but I am not a huge fan","Jordan,Rachel,Samantha,Briana,Alexandra,Shannon","I dont like it, there is too much going on,-19,20,20","Reminds me of a terrarium with cacti inside. It reminds me of home.,27,80,20","I like it but do not love it. It is sort of depressing,13,140,20","It confuses me. I dont know whats going on,14,400,20","The longer I looked at this, the more I liked it,33,60,20","I can't tell what this picture is supposed to mean and I think the colors are lacking variety.,-42,220,20","Briana","It confuses me. I dont know whats going on,14,400,20","Alexandra","The longer I looked at this, the more I liked it,33,60,20","Shannon","I can't tell what this picture is supposed to mean and I think the colors are lacking variety.,-42,220,20","4"
"38946","","survey-text","74","533829","0.0-72.0-0.0","AUZR1WE01VEBT","","","","{""Q0"":""Very confused. Is that a bird wing? Is the orange supposed to be land""}","","","","","","","","","","","","","","","","","","","","","","",""
"9247.800000190735","","image-slider-response","75","543079","0.0-73.0","AUZR1WE01VEBT","","","","","-11","","","","","","","","","","","","","","","","","","","","","",""
"4119","","image-button-response","76","548082","0.0-74.0","AUZR1WE01VEBT","img_art/6.jpg","0","","","","","","","","","","","","","","","","","","","","","","","","",""
"4331","","image-button-response","77","552414","0.0-75.0","AUZR1WE01VEBT","img_art/6.jpg","1","","","","","","","","","","","","","","","","","","","","","","","","",""
"36276","","image-button-response","78","588693","0.0-76.0-0.0","AUZR1WE01VEBT","img_art/6.jpg","3","","","","","","","","","","","","","","","","","","","","","","","","",""
"3276","","image-button-response","79","591972","0.0-77.0-0.0","AUZR1WE01VEBT","img_art/6.jpg","0","","","","","","","","","","","","","","","","","","","","","","","","",""
"null","","html-keyboard-response","80","593474","0.0-78.0","AUZR1WE01VEBT","<p style=""font-size: 48px;"">+</p>","","","","","null","allTrialResponses","1500","1","5","img_art/6.jpg","-11","Very confused. Is that a bird wing? Is the orange supposed to be land","Hannah,Kayla,Breanna,Briana,Alexandra,Shannon","Looks like a bird. It's fine.,7,240,20","Little birdie in a desert. Seeking better frontiers.,13,180,20","Not impressed, just very plain,-10,380,20","Close up peach? Hate it,-16,400,20","this is interesting and unique,11,60,20","I can't tell what this image is, but it's boring because of lack of color variety and nothing in it,-41,220,20","Kayla","Little birdie in a desert. Seeking better frontiers.,13,180,20","Briana","Close up peach? Hate it,-16,400,20","Hannah","Looks like a bird. It's fine.,7,240,20","4"
"5412","","survey-text","81","598893","0.0-79.0-0.0","AUZR1WE01VEBT","","","","{""Q0"":""sky""}","","","","","","","","","","","","","","","","","","","","","","",""
"48601","","survey-text","82","647495","0.0-80.0-0.0","AUZR1WE01VEBT","","","","{""Q0"":""Looks like a creepy city. Not real fond of the weird face at the top with its mouth open. ""}","","","","","","","","","","","","","","","","","","","","","","",""
"4912.800000190735","","image-slider-response","83","652410","0.0-81.0","AUZR1WE01VEBT","","","","","-32","","","","","","","","","","","","","","","","","","","","","",""
"3665","","image-button-response","84","657413","0.0-82.0","AUZR1WE01VEBT","img_art/8.jpg","1","","","","","","","","","","","","","","","","","","","","","","","","",""
"1260","","image-button-response","85","658676","0.0-83.0","AUZR1WE01VEBT","img_art/8.jpg","1","","","","","","","","","","","","","","","","","","","","","","","","",""
"6460","","image-button-response","86","665138","0.0-84.0-0.0","AUZR1WE01VEBT","img_art/8.jpg","0","","","","","","","","","","","","","","","","","","","","","","","","",""
"2188","","image-button-response","87","667329","0.0-85.0-0.0","AUZR1WE01VEBT","img_art/8.jpg","2","","","","","","","","","","","","","","","","","","","","","","","","",""
"null","","html-keyboard-response","88","668331","0.0-86.0","AUZR1WE01VEBT","<p style=""font-size: 48px;"">+</p>","","","","","null","allTrialResponses","1000","1","6","img_art/8.jpg","-32","Looks like a creepy city. Not real fond of the weird face at the top with its mouth open. ","Hannah,Kayla,Hailey,Briana,Paige,Jacqueline","I don't understand it. Makes no sense to me.,5,240,20","The faces are kinda freaky.,-17,180,20","cold city controlled by evil gods,-17,200,20","Its abstract and interesting,24,400,20","Nervous like being up high,10,60,20","This is kind of neat. I really like how things are oriented and the shapes used.,18,300,20","Kayla","The faces are kinda freaky.,-17,180,20","Hannah","I don't understand it. Makes no sense to me.,5,240,20","Hailey","cold city controlled by evil gods,-17,200,20","4"
"24691","","survey-text","89","693026","0.0-87.0-0.0","AUZR1WE01VEBT","","","","{""Q0"":""I think I could do this. Might have been cool if they had not used the red. ""}","","","","","","","","","","","","","","","","","","","","","","",""
"3639.2999997138977","","image-slider-response","90","696667","0.0-88.0","AUZR1WE01VEBT","","","","","-21","","","","","","","","","","","","","","","","","","","","","",""
"null","","image-button-response","91","701670","0.0-89.0","AUZR1WE01VEBT","img_art/30.jpg","null","","","","","","","","","","","","","","","","","","","","","","","","",""
"5060","","image-button-response","92","706732","0.0-90.0","AUZR1WE01VEBT","img_art/30.jpg","5","","","","","","","","","","","","","","","","","","","","","","","","",""
"2934","","image-button-response","93","709667","0.0-91.0-0.0","AUZR1WE01VEBT","img_art/30.jpg","0","","","","","","","","","","","","","","","","","","","","","","","","",""
"2661","","image-button-response","94","712331","0.0-92.0-0.0","AUZR1WE01VEBT","img_art/30.jpg","1","","","","","","","","","","","","","","","","","","","","","","","","",""
"null","","html-keyboard-response","95","713333","0.0-93.0","AUZR1WE01VEBT","<p style=""font-size: 48px;"">+</p>","","","","","null","allTrialResponses","1000","1","7","img_art/30.jpg","-21","I think I could do this. Might have been cool if they had not used the red. ","Hannah,Kayla,Hailey,Mikayla,Cynthia,Makayla","It's just all right.,5,240,20","It's soothing- the page is full, but there aren't too many things happening.,23,180,20","snakes in the grass, I don't like it,-17,200,20","Very colorful! Wow!,22,300,20","fun and imaginative,12,320,20","I feel nothing towards,-1,80,20","Makayla","I feel nothing towards,-1,80,20","Hannah","It's just all right.,5,240,20","Kayla","It's soothing- the page is full, but there aren't too many things happening.,23,180,20","4"
"26125","","survey-text","96","739463","0.0-94.0-0.0","AUZR1WE01VEBT","","","","{""Q0"":""Good lord no. This makes me feel like someone was on the magic mushrooms when they made it""}","","","","","","","","","","","","","","","","","","","","","","",""
"3852.699999809265","","image-slider-response","97","743317","0.0-95.0","AUZR1WE01VEBT","","","","","-27","","","","","","","","","","","","","","","","","","","","","",""
"3845","","image-button-response","98","748322","0.0-96.0","AUZR1WE01VEBT","img_art/25.jpg","1","","","","","","","","","","","","","","","","","","","","","","","","",""
"1001","","image-button-response","99","749325","0.0-97.0","AUZR1WE01VEBT","img_art/25.jpg","1","","","","","","","","","","","","","","","","","","","","","","","","",""
"2498","","image-button-response","100","751826","0.0-98.0-0.0","AUZR1WE01VEBT","img_art/25.jpg","4","","","","","","","","","","","","","","","","","","","","","","","","",""
"3902","","image-button-response","101","755730","0.0-99.0-0.0","AUZR1WE01VEBT","img_art/25.jpg","3","","","","","","","","","","","","","","","","","","","","","","","","",""
"null","","html-keyboard-response","102","757233","0.0-100.0","AUZR1WE01VEBT","<p style=""font-size: 48px;"">+</p>","","","","","null","allTrialResponses","1500","1","8","img_art/25.jpg","-27","Good lord no. This makes me feel like someone was on the magic mushrooms when they made it","Hannah,Kayla,Jenna,Lauren,Alyssa,Makayla","Looks like a voodoo figure in a New Orleans cemetery at night.,-5,240,20","Ghosts are NOT my thing.,-13,180,20","beautiful in a primitive way,10,360,20","Depicts something negative, such as ritual. I'm not a fan.,-10,340,20","Dark silhouette against the murky background Illicites an ominous feeling. Don't really like it.,-20,160,20","It's very mystical.,5,80,20","Kayla","Ghosts are NOT my thing.,-13,180,20","Alyssa","Dark silhouette against the murky background Illicites an ominous feeling. Don't really like it.,-20,160,20","Lauren","Depicts something negative, such as ritual. I'm not a fan.,-10,340,20","4"
"25359","","survey-text","103","782596","0.0-101.0-0.0","AUZR1WE01VEBT","","","","{""Q0"":""I actually thought this was a picture from mars. Not to bad. ""}","","","","","","","","","","","","","","","","","","","","","","",""
"5089.5","","image-slider-response","104","787687","0.0-102.0","AUZR1WE01VEBT","","","","","1","","","","","","","","","","","","","","","","","","","","","",""
"null","","image-button-response","105","792690","0.0-103.0","AUZR1WE01VEBT","img_art/7.jpg","null","","","","","","","","","","","","","","","","","","","","","","","","",""
"200","","image-button-response","106","792892","0.0-104.0","AUZR1WE01VEBT","img_art/7.jpg","2","","","","","","","","","","","","","","","","","","","","","","","","",""
"3756","","image-button-response","107","796650","0.0-105.0-0.0","AUZR1WE01VEBT","img_art/7.jpg","3","","","","","","","","","","","","","","","","","","","","","","","","",""
"2857","","image-button-response","108","799510","0.0-106.0-0.0","AUZR1WE01VEBT","img_art/7.jpg","4","","","","","","","","","","","","","","","","","","","","","","","","",""
"null","","html-keyboard-response","109","800512","0.0-107.0","AUZR1WE01VEBT","<p style=""font-size: 48px;"">+</p>","","","","","null","allTrialResponses","1000","1","9","img_art/7.jpg","1","I actually thought this was a picture from mars. Not to bad. ","Sophia,Kayla,Rebecca,Lauren,Alyssa,Emily","Is this cookie dough?  Yum!,-10,280,20","Dinosaur bones. Death.,-14,180,20","would love to take a closer look at the texture,15,100,20","I like how the image has a sense of history, since the style looks like it came from stone.,20,340,20","It looks like someone took a picture of a muddy ground and called it art.,-41,160,20","Ugly. I don't like the colors or the scattering.,-50,40,20","Rebecca","would love to take a closer look at the texture,15,100,20","Lauren","I like how the image has a sense of history, since the style looks like it came from stone.,20,340,20","Alyssa","It looks like someone took a picture of a muddy ground and called it art.,-41,160,20","4"
"26193","","survey-text","110","826709","0.0-108.0-0.0","AUZR1WE01VEBT","","","","{""Q0"":""Don't get it. Is that black supposed to be a key? To much and to little going on at the same time. ""}","","","","","","","","","","","","","","","","","","","","","","",""
"3337.7000002861023","","image-slider-response","111","830050","0.0-109.0","AUZR1WE01VEBT","","","","","-21","","","","","","","","","","","","","","","","","","","","","",""
"null","","image-button-response","112","835054","0.0-110.0","AUZR1WE01VEBT","img_art/22.jpg","null","","","","","","","","","","","","","","","","","","","","","","","","",""
"5863","","image-button-response","113","840918","0.0-111.0","AUZR1WE01VEBT","img_art/22.jpg","3","","","","","","","","","","","","","","","","","","","","","","","","",""
"3401","","image-button-response","114","844322","0.0-112.0-0.0","AUZR1WE01VEBT","img_art/22.jpg","4","","","","","","","","","","","","","","","","","","","","","","","","",""
"2882","","image-button-response","115","847207","0.0-113.0-0.0","AUZR1WE01VEBT","img_art/22.jpg","5","","","","","","","","","","","","","","","","","","","","","","","","",""
"null","","html-keyboard-response","116","848209","0.0-114.0","AUZR1WE01VEBT","<p style=""font-size: 48px;"">+</p>","","","","","null","allTrialResponses","1000","1","10","img_art/22.jpg","-21","Don't get it. Is that black supposed to be a key? To much and to little going on at the same time. ","Sydney,Lindsey,Rebecca,Lauren,Alyssa,Gabrielle","I don't normally like bright colors, but I like them in this. Don't like the random black paint.,30,320,20","Too much contrasting colors makes me feel anxious. I don't like it.,-20,400,20","colorful water (in front of castle?),17,100,20","This doesn't invoke anything, since I can't tell what the piece represents.,0,340,20","Its okay,it doesnt make me feel any sort of strong emotion,1,160,20","another OK work, mostly because of the blend of colors,12,160,20","Lauren","This doesn't invoke anything, since I can't tell what the piece represents.,0,340,20","Alyssa","Its okay,it doesnt make me feel any sort of strong emotion,1,160,20","Gabrielle","another OK work, mostly because of the blend of colors,12,160,20","4"
"3580","","survey-text","117","851796","0.0-115.0-0.0","AUZR1WE01VEBT","","","","{""Q0"":""our""}","","","","","","","","","","","","","","","","","","","","","","",""
"29842","","survey-text","118","881640","0.0-116.0-0.0","AUZR1WE01VEBT","","","","{""Q0"":""It made me feel like I need to mop my floors when I get home. ""}","","","","","","","","","","","","","","","","","","","","","","",""
"2384.4000000953674","","image-slider-response","119","884026","0.0-117.0","AUZR1WE01VEBT","","","","","-22","","","","","","","","","","","","","","","","","","","","","",""
"2267","","image-button-response","120","889031","0.0-118.0","AUZR1WE01VEBT","img_art/5.jpg","0","","","","","","","","","","","","","","","","","","","","","","","","",""
"2708","","image-button-response","121","891742","0.0-119.0","AUZR1WE01VEBT","img_art/5.jpg","2","","","","","","","","","","","","","","","","","","","","","","","","",""
"4640","","image-button-response","122","896383","0.0-120.0-0.0","AUZR1WE01VEBT","img_art/5.jpg","4","","","","","","","","","","","","","","","","","","","","","","","","",""
"7535","","image-button-response","123","903921","0.0-121.0-0.0","AUZR1WE01VEBT","img_art/5.jpg","1","","","","","","","","","","","","","","","","","","","","","","","","",""
"null","","html-keyboard-response","124","904423","0.0-122.0","AUZR1WE01VEBT","<p style=""font-size: 48px;"">+</p>","","","","","null","allTrialResponses","500","1","11","img_art/5.jpg","-22","It made me feel like I need to mop my floors when I get home. ","Kathryn,Leah,Erin,Lauren,Alyssa,Gabrielle","I see a sign advising me to be cautious.,-20,140,20","Boring, no flow except the pink feathery band,-42,360,20","Flame, candle, wind,30,120,20","I like the simplicity of the design, but I can't tell what the image is trying to depict.,10,340,20","It has a sense of vague familiarity that i like.Like a stick starting a fire at a campsite.,30,160,20","looks like a 2nd grader did it,-50,160,20","Erin","Flame, candle, wind,30,120,20","Alyssa","It has a sense of vague familiarity that i like.Like a stick starting a fire at a campsite.,30,160,20","Leah","Boring, no flow except the pink feathery band,-42,360,20","4"
"28695","","survey-text","125","933122","0.0-123.0-0.0","AUZR1WE01VEBT","","","","{""Q0"":""Thats a no from me. Ruined something ok with a big red x""}","","","","","","","","","","","","","","","","","","","","","","",""
"2879","","image-slider-response","126","936003","0.0-124.0","AUZR1WE01VEBT","","","","","-12","","","","","","","","","","","","","","","","","","","","","",""
"null","","image-button-response","127","941005","0.0-125.0","AUZR1WE01VEBT","img_art/29.jpg","null","","","","","","","","","","","","","","","","","","","","","","","","",""
"1148","","image-button-response","128","942156","0.0-126.0","AUZR1WE01VEBT","img_art/29.jpg","1","","","","","","","","","","","","","","","","","","","","","","","","",""
"5568","","image-button-response","129","947726","0.0-127.0-0.0","AUZR1WE01VEBT","img_art/29.jpg","2","","","","","","","","","","","","","","","","","","","","","","","","",""
"2925","","image-button-response","130","950654","0.0-128.0-0.0","AUZR1WE01VEBT","img_art/29.jpg","5","","","","","","","","","","","","","","","","","","","","","","","","",""
"null","","html-keyboard-response","131","951156","0.0-129.0","AUZR1WE01VEBT","<p style=""font-size: 48px;"">+</p>","","","","","null","allTrialResponses","500","1","12","img_art/29.jpg","-12","Thats a no from me. Ruined something ok with a big red x","Monica,Leah,Erin,Jessica,Alyssa,Jamie","There's too much black and it looks sloppy,-35,360,20","Scrawled graffiti, with a red x as saying it was a mistake,-40,360,20","Red X is scary, like the bricks,7,120,20","It looks cool but I don't really get what's going on, it looks too busy,0,400,20","Its interesting although doesnt illicit any strong emotions from me,10,160,20","3D looks is really cool,30,320,20","Leah","Scrawled graffiti, with a red x as saying it was a mistake,-40,360,20","Erin","Red X is scary, like the bricks,7,120,20","Jamie","3D looks is really cool,30,320,20","4"
"36893","","survey-text","132","988054","0.0-130.0-0.0","AUZR1WE01VEBT","","","","{""Q0"":""Very bland. Don't hate it, don't like it!""}","","","","","","","","","","","","","","","","","","","","","","",""
"12866.900000095367","","image-slider-response","133","1000923","0.0-131.0","AUZR1WE01VEBT","","","","","0","","","","","","","","","","","","","","","","","","","","","",""
"null","","image-button-response","134","1005926","0.0-132.0","AUZR1WE01VEBT","img_art/26.jpg","null","","","","","","","","","","","","","","","","","","","","","","","","",""
"669","","image-button-response","135","1006597","0.0-133.0","AUZR1WE01VEBT","img_art/26.jpg","2","","","","","","","","","","","","","","","","","","","","","","","","",""
"2761","","image-button-response","136","1009359","0.0-134.0-0.0","AUZR1WE01VEBT","img_art/26.jpg","3","","","","","","","","","","","","","","","","","","","","","","","","",""
"5594","","image-button-response","137","1014956","0.0-135.0-0.0","AUZR1WE01VEBT","img_art/26.jpg","0","","","","","","","","","","","","","","","","","","","","","","","","",""
"null","","html-keyboard-response","138","1016458","0.0-136.0","AUZR1WE01VEBT","<p style=""font-size: 48px;"">+</p>","","","","","null","allTrialResponses","1500","1","13","img_art/26.jpg","0","Very bland. Don't hate it, don't like it!","Diana,Leah,Erin,Julia,Amanda,Jamie","I'm not sure if this is the image of a furniture store or not.,-20,380,20","Really like it, a very nice neighborhood scene to me,42,360,20","City scene in a park,23,120,20","I'm not really into landscapes unless I have a personal connection to them,-21,40,20","Pleasant to look at,28,180,20","Street corner on a sunny day,5,320,20","Erin","City scene in a park,23,120,20","Julia","I'm not really into landscapes unless I have a personal connection to them,-21,40,20","Diana","I'm not sure if this is the image of a furniture store or not.,-20,380,20","4"
"31872","","survey-text","139","1048336","0.0-137.0-0.0","AUZR1WE01VEBT","","","","{""Q0"":""I like this one. Colors are cool and makes me want to splatter some paint on something""}","","","","","","","","","","","","","","","","","","","","","","",""
"16505.599999904633","","image-slider-response","140","1064843","0.0-138.0","AUZR1WE01VEBT","","","","","21","","","","","","","","","","","","","","","","","","","","","",""
"null","","image-button-response","141","1069850","0.0-139.0","AUZR1WE01VEBT","img_art/13.jpg","null","","","","","","","","","","","","","","","","","","","","","","","","",""
"2708","","image-button-response","142","1072560","0.0-140.0","AUZR1WE01VEBT","img_art/13.jpg","2","","","","","","","","","","","","","","","","","","","","","","","","",""
"3687","","image-button-response","143","1076248","0.0-141.0-0.0","AUZR1WE01VEBT","img_art/13.jpg","0","","","","","","","","","","","","","","","","","","","","","","","","",""
"5718","","image-button-response","144","1081969","0.0-142.0-0.0","AUZR1WE01VEBT","img_art/13.jpg","1","","","","","","","","","","","","","","","","","","","","","","","","",""
"null","","html-keyboard-response","145","1083471","0.0-143.0","AUZR1WE01VEBT","<p style=""font-size: 48px;"">+</p>","","","","","null","allTrialResponses","1500","1","14","img_art/13.jpg","21","I like this one. Colors are cool and makes me want to splatter some paint on something","Diana,Kelsey,Erin,Julia,Ashley,Olivia","I really loved the color contrast. Having the white stripe in the center makes the it appear 3D.,11,380,20","its like the ocean,24,240,20","Color palette is complementary,40,120,20","I don't really care for splatter paintings; the spectral colors underneath are nice.,-18,40,20","AWESOME! Pollack but with more direction.,32,320,20","eighties here we come,7,40,20","Erin","Color palette is complementary,40,120,20","Diana","I really loved the color contrast. Having the white stripe in the center makes the it appear 3D.,11,380,20","Kelsey","its like the ocean,24,240,20","4"
"29432","","survey-text","146","1112908","0.0-144.0-0.0","AUZR1WE01VEBT","","","","{""Q0"":""I like this one or did until I kept looking at it. It made my eyes hurt. ""}","","","","","","","","","","","","","","","","","","","","","","",""
"2882","","image-slider-response","147","1115792","0.0-145.0","AUZR1WE01VEBT","","","","","-14","","","","","","","","","","","","","","","","","","","","","",""
"1566","","image-button-response","148","1120795","0.0-146.0","AUZR1WE01VEBT","img_art/11.jpg","0","","","","","","","","","","","","","","","","","","","","","","","","",""
"1015","","image-button-response","149","1121812","0.0-147.0","AUZR1WE01VEBT","img_art/11.jpg","0","","","","","","","","","","","","","","","","","","","","","","","","",""
"2851","","image-button-response","150","1124665","0.0-148.0-0.0","AUZR1WE01VEBT","img_art/11.jpg","4","","","","","","","","","","","","","","","","","","","","","","","","",""
"2472","","image-button-response","151","1127138","0.0-149.0-0.0","AUZR1WE01VEBT","img_art/11.jpg","5","","","","","","","","","","","","","","","","","","","","","","","","",""
"null","","html-keyboard-response","152","1127641","0.0-150.0","AUZR1WE01VEBT","<p style=""font-size: 48px;"">+</p>","","","","","null","allTrialResponses","500","1","15","img_art/11.jpg","-14","I like this one or did until I kept looking at it. It made my eyes hurt. ","Diana,Kelsey,Erin,Miranda,Destiny,Jennifer","It makes my head feel dizzy. So I rated it lower.,-25,380,20","its like telephone wires, or mountains,-17,240,20","Frank Lloyd Wright, music,24,120,20","This one is a little erie, gives me post-apocalyptic feeling,27,320,20","life is a highway,12,360,20","The narrow groups of lines in the center make me feel uneasy for some reason,-31,380,20","Diana","It makes my head feel dizzy. So I rated it lower.,-25,380,20","Destiny","life is a highway,12,360,20","Jennifer","The narrow groups of lines in the center make me feel uneasy for some reason,-31,380,20","4"
"4543","","survey-text","153","1132192","0.0-151.0-0.0","AUZR1WE01VEBT","","","","{""Q0"":""course""}","","","","","","","","","","","","","","","","","","","","","","",""
"34886","","survey-text","154","1167079","0.0-152.0-0.0","AUZR1WE01VEBT","","","","{""Q0"":""No idea what this makes me feel, just yuck""}","","","","","","","","","","","","","","","","","","","","","","",""
"3308.300000190735","","image-slider-response","155","1170389","0.0-153.0","AUZR1WE01VEBT","","","","","-43","","","","","","","","","","","","","","","","","","","","","",""
"null","","image-button-response","156","1175393","0.0-154.0","AUZR1WE01VEBT","img_art/9.jpg","null","","","","","","","","","","","","","","","","","","","","","","","","",""
"5129","","image-button-response","157","1180524","0.0-155.0","AUZR1WE01VEBT","img_art/9.jpg","5","","","","","","","","","","","","","","","","","","","","","","","","",""
"1557","","image-button-response","158","1182083","0.0-156.0-0.0","AUZR1WE01VEBT","img_art/9.jpg","3","","","","","","","","","","","","","","","","","","","","","","","","",""
"7164","","image-button-response","159","1189250","0.0-157.0-0.0","AUZR1WE01VEBT","img_art/9.jpg","2","","","","","","","","","","","","","","","","","","","","","","","","",""
"null","","html-keyboard-response","160","1190754","0.0-158.0","AUZR1WE01VEBT","<p style=""font-size: 48px;"">+</p>","","","","","null","allTrialResponses","1500","1","16","img_art/9.jpg","-43","No idea what this makes me feel, just yuck","Diana,Marissa,Leslie,Katherine,Destiny,Jennifer","I think it's sleeping beauty but I'm not sure. I didn't care for this piece.,-30,380,20","It makes me think of Snow White sleeping,11,160,20","The colors are pretty, and remind me of a circus.,5,380,20","Idk what is in the middle but the blurry image makes it seem like the subject is of the painters interest,22,120,20","is that sleeping beauty,33,360,20","This piece is very boring to look at.,-27,380,20","Jennifer","This piece is very boring to look at.,-27,380,20","Katherine","Idk what is in the middle but the blurry image makes it seem like the subject is of the painters interest,22,120,20","Leslie","The colors are pretty, and remind me of a circus.,5,380,20","4"
"30139","","survey-text","161","1220898","0.0-159.0-0.0","AUZR1WE01VEBT","","","","{""Q0"":""Very jumbled. Color choices aren't that great. Makes me feel blah""}","","","","","","","","","","","","","","","","","","","","","","",""
"2467.6000003814697","","image-slider-response","162","1223367","0.0-160.0","AUZR1WE01VEBT","","","","","-15","","","","","","","","","","","","","","","","","","","","","",""
"null","","image-button-response","163","1228582","0.0-161.0","AUZR1WE01VEBT","img_art/19.jpg","null","","","","","","","","","","","","","","","","","","","","","","","","",""
"5939","","image-button-response","164","1234522","0.0-162.0","AUZR1WE01VEBT","img_art/19.jpg","0","","","","","","","","","","","","","","","","","","","","","","","","",""
"5420","","image-button-response","165","1239945","0.0-163.0-0.0","AUZR1WE01VEBT","img_art/19.jpg","4","","","","","","","","","","","","","","","","","","","","","","","","",""
"1242","","image-button-response","166","1241190","0.0-164.0-0.0","AUZR1WE01VEBT","img_art/19.jpg","5","","","","","","","","","","","","","","","","","","","","","","","","",""
"null","","html-keyboard-response","167","1241693","0.0-165.0","AUZR1WE01VEBT","<p style=""font-size: 48px;"">+</p>","","","","","null","allTrialResponses","500","1","17","img_art/19.jpg","-15","Very jumbled. Color choices aren't that great. Makes me feel blah","Sarah,Erica,Leslie,Katherine,Madison,Jennifer","too much of a mix of lines and shading,-22,180,20","very lively and colourful,21,80,20","It's a cute city scene, but nothing special.,10,380,20","I dig the not being able to tell what anything is but knowing everything is supposed to be something,46,120,20","Seems unfinished and sloppy,-11,60,20","Very, very ugly and sloppy,-31,380,20","Sarah","too much of a mix of lines and shading,-22,180,20","Madison","Seems unfinished and sloppy,-11,60,20","Jennifer","Very, very ugly and sloppy,-31,380,20","4"
"41180","","survey-text","168","1282878","0.0-166.0-0.0","AUZR1WE01VEBT","","","","{""Q0"":""I like the different colors in this one. This had a calming effect for me. It's pretty to look at. ""}","","","","","","","","","","","","","","","","","","","","","","",""
"4729.5","","image-slider-response","169","1287609","0.0-167.0","AUZR1WE01VEBT","","","","","45","","","","","","","","","","","","","","","","","","","","","",""
"2197","","image-button-response","170","1292612","0.0-168.0","AUZR1WE01VEBT","img_art/21.jpg","1","","","","","","","","","","","","","","","","","","","","","","","","",""
"1746","","image-button-response","171","1294360","0.0-169.0","AUZR1WE01VEBT","img_art/21.jpg","3","","","","","","","","","","","","","","","","","","","","","","","","",""
"3271","","image-button-response","172","1297634","0.0-170.0-0.0","AUZR1WE01VEBT","img_art/21.jpg","1","","","","","","","","","","","","","","","","","","","","","","","","",""
"2705","","image-button-response","173","1300342","0.0-171.0-0.0","AUZR1WE01VEBT","img_art/21.jpg","0","","","","","","","","","","","","","","","","","","","","","","","","",""
"null","","html-keyboard-response","174","1301343","0.0-172.0","AUZR1WE01VEBT","<p style=""font-size: 48px;"">+</p>","","","","","null","allTrialResponses","1000","1","18","img_art/21.jpg","45","I like the different colors in this one. This had a calming effect for me. It's pretty to look at. ","Sarah,Elizabeth,Melissa,Amber,Madison,Jennifer","I love the section of blues, the colors overall are really lovely,31,180,20","Touches the heart,50,20,20","feels like a harbor scene,11,240,20","sunset after the rain,49,200,20","War! But then, what? And then, what of it? Intention seems incomplete, or not fully committed to.,-19,60,20","Bland, this painting is my least favorite,-20,380,20","Amber","sunset after the rain,49,200,20","Elizabeth","Touches the heart,50,20,20","Sarah","I love the section of blues, the colors overall are really lovely,31,180,20","4"
"27350","","survey-text","175","1328699","0.0-173.0-0.0","AUZR1WE01VEBT","","","","{""Q0"":""Edward Scissor Hands is the first thing I thought of. Kind of weird.""}","","","","","","","","","","","","","","","","","","","","","","",""
"3559.699999809265","","image-slider-response","176","1332260","0.0-174.0","AUZR1WE01VEBT","","","","","-11","","","","","","","","","","","","","","","","","","","","","",""
"3518","","image-button-response","177","1337264","0.0-175.0","AUZR1WE01VEBT","img_art/4.jpg","2","","","","","","","","","","","","","","","","","","","","","","","","",""
"1263","","image-button-response","178","1338528","0.0-176.0","AUZR1WE01VEBT","img_art/4.jpg","2","","","","","","","","","","","","","","","","","","","","","","","","",""
"4818","","image-button-response","179","1343349","0.0-177.0-0.0","AUZR1WE01VEBT","img_art/4.jpg","4","","","","","","","","","","","","","","","","","","","","","","","","",""
"864","","image-button-response","180","1344215","0.0-178.0-0.0","AUZR1WE01VEBT","img_art/4.jpg","0","","","","","","","","","","","","","","","","","","","","","","","","",""
"null","","html-keyboard-response","181","1345217","0.0-179.0","AUZR1WE01VEBT","<p style=""font-size: 48px;"">+</p>","","","","","null","allTrialResponses","1000","1","19","img_art/4.jpg","-11","Edward Scissor Hands is the first thing I thought of. Kind of weird.","Sarah,Elizabeth,Kelly,Amber,Christina,Catherine","too many red/yellow shades, its impact without a reason,-27,180,20","Like the color vibrancy,29,20,20","The longer I stare at this the less I like it.,-19,220,20","I like the bold style.,10,200,20","not enough color and too yellow for me. Not my favorite colors,-10,240,20","Hearts, family connected. They are standing on a narrow base and could fall to pieces at anytime.,40,160,20","Kelly","The longer I stare at this the less I like it.,-19,220,20","Christina","not enough color and too yellow for me. Not my favorite colors,-10,240,20","Sarah","too many red/yellow shades, its impact without a reason,-27,180,20","4"
"14399","","survey-text","182","1359620","0.0-180.0-0.0","AUZR1WE01VEBT","","","","{""Q0"":""Nope, not for me. Made me anxious""}","","","","","","","","","","","","","","","","","","","","","","",""
"2574","","image-slider-response","183","1362196","0.0-181.0","AUZR1WE01VEBT","","","","","-37","","","","","","","","","","","","","","","","","","","","","",""
"3560","","image-button-response","184","1367199","0.0-182.0","AUZR1WE01VEBT","img_art/1.jpg","1","","","","","","","","","","","","","","","","","","","","","","","","",""
"1441","","image-button-response","185","1368642","0.0-183.0","AUZR1WE01VEBT","img_art/1.jpg","1","","","","","","","","","","","","","","","","","","","","","","","","",""
"3031","","image-button-response","186","1371675","0.0-184.0-0.0","AUZR1WE01VEBT","img_art/1.jpg","0","","","","","","","","","","","","","","","","","","","","","","","","",""
"4773","","image-button-response","187","1376451","0.0-185.0-0.0","AUZR1WE01VEBT","img_art/1.jpg","4","","","","","","","","","","","","","","","","","","","","","","","","",""
"null","","html-keyboard-response","188","1377454","0.0-186.0","AUZR1WE01VEBT","<p style=""font-size: 48px;"">+</p>","","","","","null","allTrialResponses","1000","1","20","img_art/1.jpg","-37","Nope, not for me. Made me anxious","Sarah,Autumn,Kelly,Crystal,Christina,Michaela","it's boring despite all the colors,-2,180,20","Doesn't represent anything in particular.,-47,340,20","I love colorful photos and I like this one a lot.,25,220,20","Interesting color scheme but to bled to me,11,300,20","nice colors but kinds of blah,1,240,20","That one piece in the middle gives it depth and it's really neat,21,260,20","Autumn","Doesn't represent anything in particular.,-47,340,20","Sarah","it's boring despite all the colors,-2,180,20","Christina","nice colors but kinds of blah,1,240,20","4"
"2870","","survey-text","189","1380332","0.0-187.0-0.0","AUZR1WE01VEBT","","","","{""Q0"":""we""}","","","","","","","","","","","","","","","","","","","","","","",""
"22385","","survey-text","190","1402718","0.0-188.0-0.0","AUZR1WE01VEBT","","","","{""Q0"":""I am pretty sure I see demons in this and it creeps me out.""}","","","","","","","","","","","","","","","","","","","","","","",""
"3485.2999997138977","","image-slider-response","191","1406205","0.0-189.0","AUZR1WE01VEBT","","","","","-50","","","","","","","","","","","","","","","","","","","","","",""
"2522","","image-button-response","192","1411209","0.0-190.0","AUZR1WE01VEBT","img_art/18.jpg","2","","","","","","","","","","","","","","","","","","","","","","","","",""
"1333","","image-button-response","193","1412544","0.0-191.0","AUZR1WE01VEBT","img_art/18.jpg","2","","","","","","","","","","","","","","","","","","","","","","","","",""
"1736","","image-button-response","194","1414282","0.0-192.0-0.0","AUZR1WE01VEBT","img_art/18.jpg","4","","","","","","","","","","","","","","","","","","","","","","","","",""
"1421","","image-button-response","195","1415705","0.0-193.0-0.0","AUZR1WE01VEBT","img_art/18.jpg","5","","","","","","","","","","","","","","","","","","","","","","","","",""
"null","","html-keyboard-response","196","1417207","0.0-194.0","AUZR1WE01VEBT","<p style=""font-size: 48px;"">+</p>","","","","","null","allTrialResponses","1500","1","21","img_art/18.jpg","-50","I am pretty sure I see demons in this and it creeps me out.","Sarah,Autumn,Margaret,Brooke,Christina,Sara","this is kind of cool. I like the color scheme and the figure in the upper left is interesting,15,180,20","This looks amazing.,40,340,20","reminds me of dying at sea in the 1700s,-8,100,20","Don't like the color scheme. Or the theme.,-5,60,20","it looks dreary and not uplifting,-10,240,20","Too abstract and swirly,-21,160,20","Margaret","reminds me of dying at sea in the 1700s,-8,100,20","Christina","it looks dreary and not uplifting,-10,240,20","Sara","Too abstract and swirly,-21,160,20","4"
"26051","","survey-text","197","1443263","0.0-195.0-0.0","AUZR1WE01VEBT","","","","{""Q0"":""Wow that pea green color is all I can see. I don't like it. Kind of grossed me out.""}","","","","","","","","","","","","","","","","","","","","","","",""
"3437.8999996185303","","image-slider-response","198","1446703","0.0-196.0","AUZR1WE01VEBT","","","","","-30","","","","","","","","","","","","","","","","","","","","","",""
"2510","","image-button-response","199","1451706","0.0-197.0","AUZR1WE01VEBT","img_art/2.jpg","2","","","","","","","","","","","","","","","","","","","","","","","","",""
"838","","image-button-response","200","1452545","0.0-198.0","AUZR1WE01VEBT","img_art/2.jpg","5","","","","","","","","","","","","","","","","","","","","","","","","",""
"1275","","image-button-response","201","1453823","0.0-199.0-0.0","AUZR1WE01VEBT","img_art/2.jpg","3","","","","","","","","","","","","","","","","","","","","","","","","",""
"1144","","image-button-response","202","1454970","0.0-200.0-0.0","AUZR1WE01VEBT","img_art/2.jpg","2","","","","","","","","","","","","","","","","","","","","","","","","",""
"null","","html-keyboard-response","203","1455972","0.0-201.0","AUZR1WE01VEBT","<p style=""font-size: 48px;"">+</p>","","","","","null","allTrialResponses","1000","1","22","img_art/2.jpg","-30","Wow that pea green color is all I can see. I don't like it. Kind of grossed me out.","Laura,Andrea,Margaret,Cassandra,Christina,Sara","active and kinetic- simplified,14,320,20","It feels like a party and Moulin Rouge.,20,240,20","doesn't do anything for me,-7,100,20","I didn't like this it looked like a kindergardner painted it and the green was out of place.,-46,120,20","It looks like a little kids primary color picture,3,240,20","Dark tone feels sad,-30,160,20","Sara","Dark tone feels sad,-30,160,20","Cassandra","I didn't like this it looked like a kindergardner painted it and the green was out of place.,-46,120,20","Margaret","doesn't do anything for me,-7,100,20","4"
"62865","","survey-text","204","1518844","0.0-202.0-0.0","AUZR1WE01VEBT","","","","{""Q0"":""A lot going on, don't hate it but it is confusing""}","","","","","","","","","","","","","","","","","","","","","","",""
"4372.599999904633","","image-slider-response","205","1523218","0.0-203.0","AUZR1WE01VEBT","","","","","9","","","","","","","","","","","","","","","","","","","","","",""
"null","","image-button-response","206","1528221","0.0-204.0","AUZR1WE01VEBT","img_art/20.jpg","null","","","","","","","","","","","","","","","","","","","","","","","","",""
"899","","image-button-response","207","1529123","0.0-205.0","AUZR1WE01VEBT","img_art/20.jpg","2","","","","","","","","","","","","","","","","","","","","","","","","",""
"4847","","image-button-response","208","1533973","0.0-206.0-0.0","AUZR1WE01VEBT","img_art/20.jpg","5","","","","","","","","","","","","","","","","","","","","","","","","",""
"5879","","image-button-response","209","1539853","0.0-207.0-0.0","AUZR1WE01VEBT","img_art/20.jpg","3","","","","","","","","","","","","","","","","","","","","","","","","",""
"null","","html-keyboard-response","210","1541356","0.0-208.0","AUZR1WE01VEBT","<p style=""font-size: 48px;"">+</p>","","","","","null","allTrialResponses","1500","1","23","img_art/20.jpg","9","A lot going on, don't hate it but it is confusing","Emma,Isabella,Margaret,Cassandra,Savannah,Sara","I like the distortion of the objects, good colors,20,60,20","Feels like a town destroyed,-19,280,20","It seems to be a neutral cool toned art piece. Gives me alamo/desert vibes,2,100,20","I liked this...I liked the blue and the black and I liked the smoothness to it.,31,120,20","Lovely composition, colors, and message.,35,200,20","Looks calm but a bit dark,21,160,20","Margaret","It seems to be a neutral cool toned art piece. Gives me alamo/desert vibes,2,100,20","Sara","Looks calm but a bit dark,21,160,20","Cassandra","I liked this...I liked the blue and the black and I liked the smoothness to it.,31,120,20","4"
"13944","","survey-text","211","1555306","0.0-209.0-0.0","AUZR1WE01VEBT","","","","{""Q0"":""Nope, it is creepy.""}","","","","","","","","","","","","","","","","","","","","","","",""
"3327.699999809265","","image-slider-response","212","1558635","0.0-210.0","AUZR1WE01VEBT","","","","","-32","","","","","","","","","","","","","","","","","","","","","",""
"2043","","image-button-response","213","1563641","0.0-211.0","AUZR1WE01VEBT","img_art/16.jpg","0","","","","","","","","","","","","","","","","","","","","","","","","",""
"1531","","image-button-response","214","1565174","0.0-212.0","AUZR1WE01VEBT","img_art/16.jpg","0","","","","","","","","","","","","","","","","","","","","","","","","",""
"4541","","image-button-response","215","1569717","0.0-213.0-0.0","AUZR1WE01VEBT","img_art/16.jpg","4","","","","","","","","","","","","","","","","","","","","","","","","",""
"2883","","image-button-response","216","1572603","0.0-214.0-0.0","AUZR1WE01VEBT","img_art/16.jpg","5","","","","","","","","","","","","","","","","","","","","","","","","",""
"null","","html-keyboard-response","217","1573105","0.0-215.0","AUZR1WE01VEBT","<p style=""font-size: 48px;"">+</p>","","","","","null","allTrialResponses","500","1","24","img_art/16.jpg","-32","Nope, it is creepy.","Alicia,Chelsea,Margaret,Cassandra,Abigail,Sara","Don't get it. Hate it. ugly.,-44,120,20","I wouldn't hang it up on my wall but I like the colors of the bear.,25,180,20","i like how it incorporates mixed visual art with the photo of the bear and the drawings,30,100,20","I like the teddy bear,but a neutral feeling,5,120,20","The bear makes me very uncomfortable,-50,20,20","This painting is too random,-30,160,20","Alicia","Don't get it. Hate it. ugly.,-44,120,20","Abigail","The bear makes me very uncomfortable,-50,20,20","Sara","This painting is too random,-30,160,20","4"
"54388","","survey-text","218","1627499","0.0-216.0-0.0","AUZR1WE01VEBT","","","","{""Q0"":""I like this, not sure why at all, but it is appealing to me.""}","","","","","","","","","","","","","","","","","","","","","","",""
"8785.10000038147","","image-slider-response","219","1636286","0.0-217.0","AUZR1WE01VEBT","","","","","25","","","","","","","","","","","","","","","","","","","","","",""
"3228","","image-button-response","220","1641289","0.0-218.0","AUZR1WE01VEBT","img_art/23.jpg","1","","","","","","","","","","","","","","","","","","","","","","","","",""
"1312","","image-button-response","221","1642602","0.0-219.0","AUZR1WE01VEBT","img_art/23.jpg","1","","","","","","","","","","","","","","","","","","","","","","","","",""
"2119","","image-button-response","222","1644724","0.0-220.0-0.0","AUZR1WE01VEBT","img_art/23.jpg","4","","","","","","","","","","","","","","","","","","","","","","","","",""
"794","","image-button-response","223","1645521","0.0-221.0-0.0","AUZR1WE01VEBT","img_art/23.jpg","5","","","","","","","","","","","","","","","","","","","","","","","","",""
"null","","html-keyboard-response","224","1646522","0.0-222.0","AUZR1WE01VEBT","<p style=""font-size: 48px;"">+</p>","","","","","null","allTrialResponses","1000","1","25","img_art/23.jpg","25","I like this, not sure why at all, but it is appealing to me.","Alicia,Mariah,Katie,Brianna,Abigail,Sara","No reactions, childish.,-19,120,20","It feels active and vibrant.,20,140,20","I don't get it! the white in the middle of the speckled rainbow is confusing.,-10,160,20","I love the rainbow!,12,20,20","I like the contrast,29,20,20","Beautiful color scheme,21,160,20","Mariah","It feels active and vibrant.,20,140,20","Abigail","I like the contrast,29,20,20","Sara","Beautiful color scheme,21,160,20","4"
"4002","","survey-text","225","1650533","0.0-223.0-0.0","AUZR1WE01VEBT","","","","{""Q0"":""table""}","","","","","","","","","","","","","","","","","","","","","","",""
"26751","","survey-text","226","1677285","0.0-224.0-0.0","AUZR1WE01VEBT","","","","{""Q0"":""Very busy, but the blue and white makes me think of a waterfall.  ""}","","","","","","","","","","","","","","","","","","","","","","",""
"3337","","image-slider-response","227","1680624","0.0-225.0","AUZR1WE01VEBT","","","","","17","","","","","","","","","","","","","","","","","","","","","",""
"2200","","image-button-response","228","1685630","0.0-226.0","AUZR1WE01VEBT","img_art/24.jpg","0","","","","","","","","","","","","","","","","","","","","","","","","",""
"1503","","image-button-response","229","1687135","0.0-227.0","AUZR1WE01VEBT","img_art/24.jpg","4","","","","","","","","","","","","","","","","","","","","","","","","",""
"685","","image-button-response","230","1687822","0.0-228.0-0.0","AUZR1WE01VEBT","img_art/24.jpg","3","","","","","","","","","","","","","","","","","","","","","","","","",""
"1681","","image-button-response","231","1689505","0.0-229.0-0.0","AUZR1WE01VEBT","img_art/24.jpg","0","","","","","","","","","","","","","","","","","","","","","","","","",""
"null","","html-keyboard-response","232","1690007","0.0-230.0","AUZR1WE01VEBT","<p style=""font-size: 48px;"">+</p>","","","","","null","allTrialResponses","500","1","26","img_art/24.jpg","17","Very busy, but the blue and white makes me think of a waterfall.  ","Natalie,Mariah,Kristen,Claire,Abigail,Sara","I like the waterfall,22,400,20","It is like a really bad impressionist painting.,-40,140,20","calm, nature, safe, happy place,,50,280,20","reminds me of a beautiful waterfall,50,260,20","Beautiful waterfall I like waterfalls,39,20,20","Beautiful scenic drawing with perfect color coordination,43,160,20","Abigail","Beautiful waterfall I like waterfalls,39,20,20","Claire","reminds me of a beautiful waterfall,50,260,20","Natalie","I like the waterfall,22,400,20","4"
"20856","","survey-text","233","1710870","0.0-231.0-0.0","AUZR1WE01VEBT","","","","{""Q0"":""The green on that ruined it. Very distracting.""}","","","","","","","","","","","","","","","","","","","","","","",""
"4847.5","","image-slider-response","234","1715720","0.0-232.0","AUZR1WE01VEBT","","","","","-7","","","","","","","","","","","","","","","","","","","","","",""
"4809","","image-button-response","235","1720723","0.0-233.0","AUZR1WE01VEBT","img_art/27.jpg","5","","","","","","","","","","","","","","","","","","","","","","","","",""
"1076","","image-button-response","236","1721801","0.0-234.0","AUZR1WE01VEBT","img_art/27.jpg","5","","","","","","","","","","","","","","","","","","","","","","","","",""
"784","","image-button-response","237","1722587","0.0-235.0-0.0","AUZR1WE01VEBT","img_art/27.jpg","3","","","","","","","","","","","","","","","","","","","","","","","","",""
"1969","","image-button-response","238","1724557","0.0-236.0-0.0","AUZR1WE01VEBT","img_art/27.jpg","1","","","","","","","","","","","","","","","","","","","","","","","","",""
"null","","html-keyboard-response","239","1725560","0.0-237.0","AUZR1WE01VEBT","<p style=""font-size: 48px;"">+</p>","","","","","null","allTrialResponses","1000","1","27","img_art/27.jpg","-7","The green on that ruined it. Very distracting.","Natalie,Haley,Allison,Claire,Abigail,Angela","also gives me anxiety,-21,400,20","First thought is again, that this looks like a child's art assignment,-20,220,20","Warn colors are pretty, but too blotchy for me.,3,140,20","looks like a little kid did it,-30,260,20","Looks like a little kids drawing,20,20,20","It's okay. Not really interesting to me.,-10,260,20","Angela","It's okay. Not really interesting to me.,-10,260,20","Claire","looks like a little kid did it,-30,260,20","Haley","First thought is again, that this looks like a child's art assignment,-20,220,20","4"
"16757","","survey-text","240","1742322","0.0-238.0-0.0","AUZR1WE01VEBT","","","","{""Q0"":""I like this one. Kind of resembles a tree. ""}","","","","","","","","","","","","","","","","","","","","","","",""
"4045.4000000953674","","image-slider-response","241","1746370","0.0-239.0","AUZR1WE01VEBT","","","","","12","","","","","","","","","","","","","","","","","","","","","",""
"3606","","image-button-response","242","1751373","0.0-240.0","AUZR1WE01VEBT","img_art/17.jpg","4","","","","","","","","","","","","","","","","","","","","","","","","",""
"1132","","image-button-response","243","1752507","0.0-241.0","AUZR1WE01VEBT","img_art/17.jpg","4","","","","","","","","","","","","","","","","","","","","","","","","",""
"816","","image-button-response","244","1753326","0.0-242.0-0.0","AUZR1WE01VEBT","img_art/17.jpg","3","","","","","","","","","","","","","","","","","","","","","","","","",""
"14428","","image-button-response","245","1767756","0.0-243.0-0.0","AUZR1WE01VEBT","img_art/17.jpg","5","","","","","","","","","","","","","","","","","","","","","","","","",""
"null","","html-keyboard-response","246","1768259","0.0-244.0","AUZR1WE01VEBT","<p style=""font-size: 48px;"">+</p>","","","","","null","allTrialResponses","500","1","28","img_art/17.jpg","12","I like this one. Kind of resembles a tree. ","Anna,Haley,Taylor,Claire,Madeline,Angela","it brings a clear picture to my minds eye:,45,300,20","Colors and composition are beautiful. I would hang this in my home.,50,220,20","A very inspiring piece,41,340,20","its whimsical and light,50,260,20","So expressive and wonderful wow!,17,40,20","I like this, but it's a bit bland.,10,260,20","Madeline","So expressive and wonderful wow!,17,40,20","Claire","its whimsical and light,50,260,20","Angela","I like this, but it's a bit bland.,10,260,20","4"
"24217","","survey-text","247","1792483","0.0-245.0-0.0","AUZR1WE01VEBT","","","","{""Q0"":""Dislike! Colors are weird and I think I see a rat. ""}","","","","","","","","","","","","","","","","","","","","","","",""
"5339.900000095367","","image-slider-response","248","1797825","0.0-246.0","AUZR1WE01VEBT","","","","","-22","","","","","","","","","","","","","","","","","","","","","",""
"null","","image-button-response","249","1802831","0.0-247.0","AUZR1WE01VEBT","img_art/28.jpg","null","","","","","","","","","","","","","","","","","","","","","","","","",""
"1336","","image-button-response","250","1804168","0.0-248.0","AUZR1WE01VEBT","img_art/28.jpg","1","","","","","","","","","","","","","","","","","","","","","","","","",""
"3728","","image-button-response","251","1807899","0.0-249.0-0.0","AUZR1WE01VEBT","img_art/28.jpg","3","","","","","","","","","","","","","","","","","","","","","","","","",""
"1550","","image-button-response","252","1809452","0.0-250.0-0.0","AUZR1WE01VEBT","img_art/28.jpg","4","","","","","","","","","","","","","","","","","","","","","","","","",""
"null","","html-keyboard-response","253","1810458","0.0-251.0","AUZR1WE01VEBT","<p style=""font-size: 48px;"">+</p>","","","","","null","allTrialResponses","1000","1","29","img_art/28.jpg","-22","Dislike! Colors are weird and I think I see a rat. ","Alexa,Kaitlyn,Sabrina,Claire,Madeline,Angela","The colors are dull but there's some kind of nostalgic essence of this painting,15,40,20","Not sure what way this picture is suppose to be oriented,-5,80,20","Self-hate and abuse at home, unsafe and torturing,-30,120,20","not a fan of the colors or strokes used,-27,260,20","It is a bit drab,-10,40,20","This reminds me of internal organs.,-10,260,20","Kaitlyn","Not sure what way this picture is suppose to be oriented,-5,80,20","Claire","not a fan of the colors or strokes used,-27,260,20","Madeline","It is a bit drab,-10,40,20","4"
"31162","","survey-text","254","1841626","0.0-252.0-0.0","AUZR1WE01VEBT","","","","{""Q0"":""This one is ok. Don't hate it. Could look at it for a while""}","","","","","","","","","","","","","","","","","","","","","","",""
"3441.0999999046326","","image-slider-response","255","1845069","0.0-253.0","AUZR1WE01VEBT","","","","","11","","","","","","","","","","","","","","","","","","","","","",""
"4685","","image-button-response","256","1850072","0.0-254.0","AUZR1WE01VEBT","img_art/12.jpg","1","","","","","","","","","","","","","","","","","","","","","","","","",""
"1143","","image-button-response","257","1851216","0.0-255.0","AUZR1WE01VEBT","img_art/12.jpg","1","","","","","","","","","","","","","","","","","","","","","","","","",""
"2330","","image-button-response","258","1853548","0.0-256.0-0.0","AUZR1WE01VEBT","img_art/12.jpg","3","","","","","","","","","","","","","","","","","","","","","","","","",""
"1786","","image-button-response","259","1855337","0.0-257.0-0.0","AUZR1WE01VEBT","img_art/12.jpg","4","","","","","","","","","","","","","","","","","","","","","","","","",""
"null","","html-keyboard-response","260","1856839","0.0-258.0","AUZR1WE01VEBT","<p style=""font-size: 48px;"">+</p>","","","","","null","allTrialResponses","1500","1","30","img_art/12.jpg","11","This one is ok. Don't hate it. Could look at it for a while","Kylie,Kaitlyn,Amy,Claire,Madeline,Jasmine","Night and day, light and dark,35,300,20","The shapes present in the picture make it very interesting,17,80,20","Quite lovely with depth and possibility.,21,220,20","i like the repetition,30,260,20","Love the shapes here,12,40,20","It's just not my style,-18,340,20","Kaitlyn","The shapes present in the picture make it very interesting,17,80,20","Claire","i like the repetition,30,260,20","Madeline","Love the shapes here,12,40,20","4"
"3724","","image-button-response_instructions","261","1860569","0.0-259.0","AUZR1WE01VEBT","","0","instructions","","","","","","","","","","","","","","","","","","","","","","","",""
"1124","","image-button-response","262","1861699","0.0-260.0","AUZR1WE01VEBT","","0","","","","","","","","","","","","","","","","","","","","","","","","",""
