"rt","url","trial_type","trial_index","time_elapsed","internal_node_id","participant_id","stimulus","button_pressed","Name","responses","response","key_press","variableName","fixationTime","condition","trial","photo","subjectRating","subjectResponse","agentsNames","agent_1_Response","agent_2_Response","agent_3_Response","agent_4_Response","agent_5_Response","agent_6_Response","kept_1_name","kept_1_response","kept_2_name","kept_2_response","kept_3_name","kept_3_response","errorCounter"
"30054","external_page_harvard.html","external-html","0","31634","0.0-0.0","AVFMTS8A5R4XK","","","","","","","","","","","","","","","","","","","","","","","","","","",""
"3322","","image-button-response","1","34959","0.0-1.0","AVFMTS8A5R4XK","","0","","","","","","","","","","","","","","","","","","","","","","","","",""
"2222","","image-button-response","2","37189","0.0-2.0-0.0","AVFMTS8A5R4XK","","1","phone","","","","","","","","","","","","","","","","","","","","","","","",""
"20435","","survey-text","3","57627","0.0-3.0-0.0","AVFMTS8A5R4XK","","","","{""Q0"":""AVFMTS8A5R4XK""}","","","","","","","","","","","","","","","","","","","","","","",""
"20217","","image-button-response_instructions","4","77847","0.0-4.0","AVFMTS8A5R4XK","","0","instructions","","","","","","","","","","","","","","","","","","","","","","","",""
"12066","","image-button-response_instructions","5","89915","0.0-5.0","AVFMTS8A5R4XK","img_art/ins/popularity/ins1.png","0","instructions","","","","","","","","","","","","","","","","","","","","","","","",""
"12748","","image-button-response_instructions","6","102665","0.0-6.0","AVFMTS8A5R4XK","img_art/ins/popularity/ins2.png","0","instructions","","","","","","","","","","","","","","","","","","","","","","","",""
"6074","","image-button-response_instructions","7","108741","0.0-7.0","AVFMTS8A5R4XK","img_art/ins/popularity/ins2Extreme.png","0","instructions","","","","","","","","","","","","","","","","","","","","","","","",""
"3634","","image-button-response_instructions","8","112377","0.0-8.0","AVFMTS8A5R4XK","img_art/ins/popularity/ins3KEEPpop.PNG","0","instructions","","","","","","","","","","","","","","","","","","","","","","","",""
"3842","","image-button-response_instructions","9","116221","0.0-9.0","AVFMTS8A5R4XK","img_art/ins/popularity/ins3ANamepop.PNG","0","instructions","","","","","","","","","","","","","","","","","","","","","","","",""
"1961","","image-button-response_instructions","10","118183","0.0-10.0","AVFMTS8A5R4XK","img_art/ins/popularity/ins3ARatingpop.png","0","instructions","","","","","","","","","","","","","","","","","","","","","","","",""
"2438","","image-button-response_instructions","11","120622","0.0-11.0","AVFMTS8A5R4XK","img_art/ins/popularity/ins3ATextpop.png","0","instructions","","","","","","","","","","","","","","","","","","","","","","","",""
"2424","","image-button-response_instructions","12","123048","0.0-12.0","AVFMTS8A5R4XK","img_art/ins/popularity/ins3ALikespop.png","0","instructions","","","","","","","","","","","","","","","","","","","","","","","",""
"1535","","image-button-response_instructions","13","124584","0.0-13.0","AVFMTS8A5R4XK","img_art/ins/popularity/ins3KEEPpop.PNG","0","instructions","","","","","","","","","","","","","","","","","","","","","","","",""
"51375","","image-button-response_instructions","14","175961","0.0-14.0","AVFMTS8A5R4XK","img_art/ins/popularity/ins3_5RED.png","0","instructions","","","","","","","","","","","","","","","","","","","","","","","",""
"2146","","image-button-response_instructions","15","178108","0.0-15.0","AVFMTS8A5R4XK","img_art/ins/popularity/ins3KEEPpop.PNG","0","instructions","","","","","","","","","","","","","","","","","","","","","","","",""
"1451","","image-button-response_instructions","16","179561","0.0-16.0","AVFMTS8A5R4XK","img_art/ins/popularity/ins4KEEPpop.PNG","0","instructions","","","","","","","","","","","","","","","","","","","","","","","",""
"2678","","image-button-response_instructions","17","182240","0.0-17.0","AVFMTS8A5R4XK","img_art/ins/popularity/ins5KEEPpop.PNG","0","instructions","","","","","","","","","","","","","","","","","","","","","","","",""
"2831","","image-button-response_instructions","18","185073","0.0-18.0","AVFMTS8A5R4XK","","0","instructions","","","","","","","","","","","","","","","","","","","","","","","",""
"9111","","survey-text","19","194220","0.0-19.0-0.0","AVFMTS8A5R4XK","","","","{""Q0"":""but""}","","","","","","","","","","","","","","","","","","","","","","",""
"15229","","survey-text","20","209452","0.0-20.0-0.0","AVFMTS8A5R4XK","","","","{""Q0"":""worst""}","","","","","","","","","","","","","","","","","","","","","","",""
"14473","","survey-text","21","229933","0.0-20.1-0.1","AVFMTS8A5R4XK","","","","{""Q0"":"" not clearly mentioned""}","","","","","","","","","","","","","","","","","","","","","","",""
"7369.100000143051","","image-slider-response","22","237305","0.0-21.0","AVFMTS8A5R4XK","","","","","-32","","","","","","","","","","","","","","","","","","","","","",""
"null","","image-button-response","23","242325","0.0-22.0","AVFMTS8A5R4XK","img_art/ins/1.jpg","null","","","","","","","","","","","","","","","","","","","","","","","","",""
"138613","","image-button-response","24","380940","0.0-23.0","AVFMTS8A5R4XK","img_art/ins/1.jpg","5","","","","","","","","","","","","","","","","","","","","","","","","",""
"3095","","image-button-response","25","384039","0.0-24.0-0.0","AVFMTS8A5R4XK","img_art/ins/1.jpg","4","","","","","","","","","","","","","","","","","","","","","","","","",""
"8728","","image-button-response","26","392770","0.0-25.0-0.0","AVFMTS8A5R4XK","img_art/ins/1.jpg","3","","","","","","","","","","","","","","","","","","","","","","","","",""
"null","","html-keyboard-response","27","393273","0.0-26.0","AVFMTS8A5R4XK","<p style=""font-size: 48px;"">+</p>","","","","","null","allTrialResponses","500","1","-2","img_art/ins/1.jpg","-32"," not clearly mentioned","Adam,Alex,Ben,Carl,Daniel,Jack","Seems like doodles,-20,20,20","very creative work.,36,40,20","This color reminds me of poo,-46,60,20","very calming artwork,42,80,20","It looks like a murder scene.,-48,100,20","I like the sophisticated brushwork,40,120,20","Jack","I like the sophisticated brushwork,40,120,20","Daniel","It looks like a murder scene.,-48,100,20","Carl","very calming artwork,42,80,20","0"
"11794","","survey-text","28","405076","0.0-27.0-0.0","AVFMTS8A5R4XK","","","","{""Q0"":""looks clear""}","","","","","","","","","","","","","","","","","","","","","","",""
"8295.900000095367","","image-slider-response","29","413374","0.0-28.0","AVFMTS8A5R4XK","","","","","22","","","","","","","","","","","","","","","","","","","","","",""
"3027","","image-button-response","30","418378","0.0-29.0","AVFMTS8A5R4XK","img_art/ins/2.jpg","5","","","","","","","","","","","","","","","","","","","","","","","","",""
"1671","","image-button-response","31","420052","0.0-30.0","AVFMTS8A5R4XK","img_art/ins/2.jpg","5","","","","","","","","","","","","","","","","","","","","","","","","",""
"892","","image-button-response","32","420947","0.0-31.0-0.0","AVFMTS8A5R4XK","img_art/ins/2.jpg","3","","","","","","","","","","","","","","","","","","","","","","","","",""
"834","","image-button-response","33","421784","0.0-32.0-0.0","AVFMTS8A5R4XK","img_art/ins/2.jpg","0","","","","","","","","","","","","","","","","","","","","","","","","",""
"null","","html-keyboard-response","34","422787","0.0-33.0","AVFMTS8A5R4XK","<p style=""font-size: 48px;"">+</p>","","","","","null","allTrialResponses","1000","1","-1","img_art/ins/2.jpg","22","looks clear","James,John,Kyle,Carl,Daniel,Jack","looks too angry,-50,140,20","love the texture of paint,48,160,20","Idk, it is just annoying,-32,180,20","I can feel the artist's passion in it,45,80,20","One of my pet peevs,-48,100,20","I would never be able to compose a sophisticated pallete like this,48,120,20","Jack","I would never be able to compose a sophisticated pallete like this,48,120,20","Carl","I can feel the artist's passion in it,45,80,20","James","looks too angry,-50,140,20","0"
"281124","","survey-text","35","703916","0.0-34.0-0.0","AVFMTS8A5R4XK","","","","{""Q0"":""SLIGHTLY CONFUSING""}","","","","","","","","","","","","","","","","","","","","","","",""
"6665.799999952316","","image-slider-response","36","710584","0.0-35.0","AVFMTS8A5R4XK","","","","","-4","","","","","","","","","","","","","","","","","","","","","",""
"null","","image-button-response","37","715588","0.0-36.0","AVFMTS8A5R4XK","img_art/ins/3.jpg","null","","","","","","","","","","","","","","","","","","","","","","","","",""
"116636","","image-button-response","38","832226","0.0-37.0","AVFMTS8A5R4XK","img_art/ins/3.jpg","5","","","","","","","","","","","","","","","","","","","","","","","","",""
"1523","","image-button-response","39","833752","0.0-38.0-0.0","AVFMTS8A5R4XK","img_art/ins/3.jpg","0","","","","","","","","","","","","","","","","","","","","","","","","",""
"606","","image-button-response","40","834361","0.0-39.0-0.0","AVFMTS8A5R4XK","img_art/ins/3.jpg","1","","","","","","","","","","","","","","","","","","","","","","","","",""
"null","","html-keyboard-response","41","834864","0.0-40.0","AVFMTS8A5R4XK","<p style=""font-size: 48px;"">+</p>","","","","","null","allTrialResponses","500","1","0","img_art/ins/3.jpg","-4","SLIGHTLY CONFUSING","James,Sam,Mike,Carl,Ron,Jack","My worst nightmare,-42,140,20","I can feel a rainy day from this painting,18,240,20","enjoy the different shades of blue,22,200,20","It's an alright work,15,80,20","It looks depressing,-26,220,20","I feel connected to the artist,40,120,20","Jack","I feel connected to the artist,40,120,20","James","My worst nightmare,-42,140,20","Sam","I can feel a rainy day from this painting,18,240,20","0"
"5216","","image-button-response_instructions","42","840138","0.0-41.0","AVFMTS8A5R4XK","","0","instructions","","","","","","","","","","","","","","","","","","","","","","","",""
"5512","","survey-likert","43","845653","0.0-42.0-0.0","AVFMTS8A5R4XK","","","","{""Q0"":"""",""Q1"":0,""Q2"":0}","","","","","","","","","","","","","","","","","","","","","","",""
"6114","","survey-likert","44","853521","0.0-42.1-0.1","AVFMTS8A5R4XK","","","","{""Q0"":"""",""Q1"":1,""Q2"":1}","","","","","","","","","","","","","","","","","","","","","","",""
"7205","","survey-likert","45","862761","0.0-42.2-0.2","AVFMTS8A5R4XK","","","","{""Q0"":"""",""Q1"":0,""Q2"":1}","","","","","","","","","","","","","","","","","","","","","","",""
"13702","","survey-text","46","876470","0.0-43.0-0.0","AVFMTS8A5R4XK","","","","{""Q0"":""rock""}","","","","","","","","","","","","","","","","","","","","","","",""
"12880","","survey-text","47","889353","0.0-44.0-0.0","AVFMTS8A5R4XK","","","","{""Q0"":""clearity""}","","","","","","","","","","","","","","","","","","","","","","",""
"6690","","image-slider-response","48","896046","0.0-45.0","AVFMTS8A5R4XK","","","","","21","","","","","","","","","","","","","","","","","","","","","",""
"4879","","image-button-response","49","901087","0.0-46.0","AVFMTS8A5R4XK","img_art/18.jpg","1","","","","","","","","","","","","","","","","","","","","","","","","",""
"44247","","image-button-response","50","945336","0.0-47.0","AVFMTS8A5R4XK","img_art/18.jpg","4","","","","","","","","","","","","","","","","","","","","","","","","",""
"595","","image-button-response","51","945935","0.0-48.0-0.0","AVFMTS8A5R4XK","img_art/18.jpg","1","","","","","","","","","","","","","","","","","","","","","","","","",""
"817","","image-button-response","52","946755","0.0-49.0-0.0","AVFMTS8A5R4XK","img_art/18.jpg","0","","","","","","","","","","","","","","","","","","","","","","","","",""
"null","","html-keyboard-response","53","947259","0.0-50.0","AVFMTS8A5R4XK","<p style=""font-size: 48px;"">+</p>","","","","","null","allTrialResponses","500","1","1","img_art/18.jpg","21","clearity","Edward,Matthew,Charles,Hunter,Luke,Cameron","Reminds me of the four horsemen of the apocalypse,29,60,20","Resembles a ship at sea, storm of activity.,28,120,20","I enjoy the detailed line work in this one,21,100,20","creamy color, feels like organized chaos,23,240,20","the harsh lines with the smooth lines makes me think of wild animals,20,20,20","Don't like the color scheme. Or the theme.,-5,60,20","Luke","the harsh lines with the smooth lines makes me think of wild animals,20,20,20","Matthew","Resembles a ship at sea, storm of activity.,28,120,20","Edward","Reminds me of the four horsemen of the apocalypse,29,60,20","2"
"10061","","survey-text","54","957324","0.0-51.0-0.0","AVFMTS8A5R4XK","","","","{""Q0"":""not so good""}","","","","","","","","","","","","","","","","","","","","","","",""
"4244","","image-slider-response","55","961571","0.0-52.0","AVFMTS8A5R4XK","","","","","-25","","","","","","","","","","","","","","","","","","","","","",""
"4763","","image-button-response","56","966575","0.0-53.0","AVFMTS8A5R4XK","img_art/3.jpg","4","","","","","","","","","","","","","","","","","","","","","","","","",""
"1242","","image-button-response","57","967821","0.0-54.0","AVFMTS8A5R4XK","img_art/3.jpg","5","","","","","","","","","","","","","","","","","","","","","","","","",""
"1525","","image-button-response","58","969349","0.0-55.0-0.0","AVFMTS8A5R4XK","img_art/3.jpg","1","","","","","","","","","","","","","","","","","","","","","","","","",""
"1175","","image-button-response","59","970529","0.0-56.0-0.0","AVFMTS8A5R4XK","img_art/3.jpg","4","","","","","","","","","","","","","","","","","","","","","","","","",""
"null","","html-keyboard-response","60","971532","0.0-57.0","AVFMTS8A5R4XK","<p style=""font-size: 48px;"">+</p>","","","","","null","allTrialResponses","1000","1","2","img_art/3.jpg","-25","not so good","Edward,Matthew,Brian,James,Luke,Alexis","It looks like someone took a red sharpie and just scribbled angrily,-20,60,20","Reminds of John Lenonn's art a bit.,27,120,20","this is a very nice emotion,27,380,20","It's very plain,-20,380,20","it makes me feel really angry,-20,20,20","It looks like a child drawing,-29,140,20","Alexis","It looks like a child drawing,-29,140,20","Matthew","Reminds of John Lenonn's art a bit.,27,120,20","Luke","it makes me feel really angry,-20,20,20","2"
"11824","","survey-text","61","983362","0.0-58.0-0.0","AVFMTS8A5R4XK","","","","{""Q0"":""nice pictures""}","","","","","","","","","","","","","","","","","","","","","","",""
"5128.299999952316","","image-slider-response","62","988493","0.0-59.0","AVFMTS8A5R4XK","","","","","36","","","","","","","","","","","","","","","","","","","","","",""
"3339","","image-button-response","63","993541","0.0-60.0","AVFMTS8A5R4XK","img_art/16.jpg","0","","","","","","","","","","","","","","","","","","","","","","","","",""
"1204","","image-button-response","64","994749","0.0-61.0","AVFMTS8A5R4XK","img_art/16.jpg","0","","","","","","","","","","","","","","","","","","","","","","","","",""
"1571","","image-button-response","65","996323","0.0-62.0-0.0","AVFMTS8A5R4XK","img_art/16.jpg","1","","","","","","","","","","","","","","","","","","","","","","","","",""
"1141","","image-button-response","66","997467","0.0-63.0-0.0","AVFMTS8A5R4XK","img_art/16.jpg","0","","","","","","","","","","","","","","","","","","","","","","","","",""
"789","","image-button-response","67","1003445","0.0-63.1-0.1","AVFMTS8A5R4XK","img_art/16.jpg","3","","","","","","","","","","","","","","","","","","","","","","","","",""
"null","","html-keyboard-response","68","1004460","0.0-64.0","AVFMTS8A5R4XK","<p style=""font-size: 48px;"">+</p>","","","","","null","allTrialResponses","1000","1","3","img_art/16.jpg","36","nice pictures","Antonio,Matthew,Eric,Mark,Luke,Alexis","Did not like at all. I think something sinister going on in the background and the bear a diversion,-50,220,20","A lot fo these could abstract or childrens work.,23,120,20","This piece is unusual but unique.,5,100,20","I think it's about child abuse. The teddy bear represents innocence and the dark shape is approaching it.,40,80,20","while simple, it seems to have a deeper meaning on childhood,33,20,20","It looks very generic, like items were pasted onto the background,-38,140,20","Antonio","Did not like at all. I think something sinister going on in the background and the bear a diversion,-50,220,20","Matthew","A lot fo these could abstract or childrens work.,23,120,20","Mark","I think it's about child abuse. The teddy bear represents innocence and the dark shape is approaching it.,40,80,20","4"
"9698","","survey-text","69","1014165","0.0-65.0-0.0","AVFMTS8A5R4XK","","","","{""Q0"":""very clear""}","","","","","","","","","","","","","","","","","","","","","","",""
"4041.5","","image-slider-response","70","1018209","0.0-66.0","AVFMTS8A5R4XK","","","","","38","","","","","","","","","","","","","","","","","","","","","",""
"null","","image-button-response","71","1023419","0.0-67.0","AVFMTS8A5R4XK","img_art/11.jpg","null","","","","","","","","","","","","","","","","","","","","","","","","",""
"16907","","image-button-response","72","1040329","0.0-68.0","AVFMTS8A5R4XK","img_art/11.jpg","2","","","","","","","","","","","","","","","","","","","","","","","","",""
"1301","","image-button-response","73","1041633","0.0-69.0-0.0","AVFMTS8A5R4XK","img_art/11.jpg","1","","","","","","","","","","","","","","","","","","","","","","","","",""
"1549","","image-button-response","74","1043185","0.0-70.0-0.0","AVFMTS8A5R4XK","img_art/11.jpg","4","","","","","","","","","","","","","","","","","","","","","","","","",""
"null","","html-keyboard-response","75","1044782","0.0-71.0","AVFMTS8A5R4XK","<p style=""font-size: 48px;"">+</p>","","","","","null","allTrialResponses","1500","1","4","img_art/11.jpg","38","very clear","Antonio,Matthew,Bryan,Mark,Dustin,Cole","Makes me think of far away places and traveling. Makes me feel like wandering,20,220,20","Dark but bright, city but ocean, musical scales.,50,120,20","Rainy asian city scape.,31,400,20","My initial thought was roller coasters but I see ship masts on a cloudy day too.,35,80,20","Dark and dreary. Makes me think of rain/water. I see grey clouds and high waves. Looks unsettling.,-20,20,20","Grays arent my thing,-25,200,20","Bryan","Rainy asian city scape.,31,400,20","Matthew","Dark but bright, city but ocean, musical scales.,50,120,20","Dustin","Dark and dreary. Makes me think of rain/water. I see grey clouds and high waves. Looks unsettling.,-20,20,20","4"
"15692","","survey-text","76","1060481","0.0-72.0-0.0","AVFMTS8A5R4XK","","","","{""Q0"":""monster pictures""}","","","","","","","","","","","","","","","","","","","","","","",""
"5800.799999952316","","image-slider-response","77","1066284","0.0-73.0","AVFMTS8A5R4XK","","","","","38","","","","","","","","","","","","","","","","","","","","","",""
"4139","","image-button-response","78","1071288","0.0-74.0","AVFMTS8A5R4XK","img_art/25.jpg","4","","","","","","","","","","","","","","","","","","","","","","","","",""
"2859","","image-button-response","79","1074150","0.0-75.0","AVFMTS8A5R4XK","img_art/25.jpg","0","","","","","","","","","","","","","","","","","","","","","","","","",""
"2144","","image-button-response","80","1076298","0.0-76.0-0.0","AVFMTS8A5R4XK","img_art/25.jpg","3","","","","","","","","","","","","","","","","","","","","","","","","",""
"1797","","image-button-response","81","1078098","0.0-77.0-0.0","AVFMTS8A5R4XK","img_art/25.jpg","2","","","","","","","","","","","","","","","","","","","","","","","","",""
"null","","html-keyboard-response","82","1079111","0.0-78.0","AVFMTS8A5R4XK","<p style=""font-size: 48px;"">+</p>","","","","","null","allTrialResponses","1000","1","5","img_art/25.jpg","38","monster pictures","Kyle,Matthew,Bryan,Travis,Dustin,Bradley","I liked it as it seems unique in a way,21,340,20","haunting, a lovely impression.,50,120,20","Scary. Something out of a Stephen King book/movie.,-31,400,20","I hate the colors and the scene,-46,260,20","Reminds me of ancient civilization art. I like the aqua color; soothing to me.,1,20,20","This one just has a dark feeling to me.,-50,300,20","Kyle","I liked it as it seems unique in a way,21,340,20","Travis","I hate the colors and the scene,-46,260,20","Bryan","Scary. Something out of a Stephen King book/movie.,-31,400,20","4"
"5359","","survey-text","83","1084481","0.0-79.0-0.0","AVFMTS8A5R4XK","","","","{""Q0"":""sky""}","","","","","","","","","","","","","","","","","","","","","","",""
"11013","","survey-text","84","1095495","0.0-80.0-0.0","AVFMTS8A5R4XK","","","","{""Q0"":""somewhat ok""}","","","","","","","","","","","","","","","","","","","","","","",""
"3861.7000000476837","","image-slider-response","85","1099359","0.0-81.0","AVFMTS8A5R4XK","","","","","4","","","","","","","","","","","","","","","","","","","","","",""
"4887","","image-button-response","86","1104374","0.0-82.0","AVFMTS8A5R4XK","img_art/21.jpg","5","","","","","","","","","","","","","","","","","","","","","","","","",""
"1362","","image-button-response","87","1105740","0.0-83.0","AVFMTS8A5R4XK","img_art/21.jpg","4","","","","","","","","","","","","","","","","","","","","","","","","",""
"1400","","image-button-response","88","1107142","0.0-84.0-0.0","AVFMTS8A5R4XK","img_art/21.jpg","1","","","","","","","","","","","","","","","","","","","","","","","","",""
"964","","image-button-response","89","1108110","0.0-85.0-0.0","AVFMTS8A5R4XK","img_art/21.jpg","1","","","","","","","","","","","","","","","","","","","","","","","","",""
"1611","","image-button-response","90","1113334","0.0-85.1-0.1","AVFMTS8A5R4XK","img_art/21.jpg","2","","","","","","","","","","","","","","","","","","","","","","","","",""
"null","","html-keyboard-response","91","1113838","0.0-86.0","AVFMTS8A5R4XK","<p style=""font-size: 48px;"">+</p>","","","","","null","allTrialResponses","500","1","6","img_art/21.jpg","4","somewhat ok","Kyle,Brett,Bryan,Travis,Anthony,Adam","The blues make me feel sadder as my mood is already not the best right now,-10,340,20","Makes me think of a battleship targeting a beautiful mountainside,0,360,20","Like the colors, the cloudy, airy effects. Nice.,46,400,20","I liked it...it looked like a storm raging.,12,260,20","Bland, this painting is my least favorite,-20,200,20","I like color mix here,15,40,20","Anthony","Bland, this painting is my least favorite,-20,200,20","Brett","Makes me think of a battleship targeting a beautiful mountainside,0,360,20","Bryan","Like the colors, the cloudy, airy effects. Nice.,46,400,20","6"
"49915","","survey-text","92","1163760","0.0-87.0-0.0","AVFMTS8A5R4XK","","","","{""Q0"":""group of people""}","","","","","","","","","","","","","","","","","","","","","","",""
"4255.599999904633","","image-slider-response","93","1168018","0.0-88.0","AVFMTS8A5R4XK","","","","","27","","","","","","","","","","","","","","","","","","","","","",""
"null","","image-button-response","94","1173068","0.0-89.0","AVFMTS8A5R4XK","img_art/23.jpg","null","","","","","","","","","","","","","","","","","","","","","","","","",""
"2261","","image-button-response","95","1175332","0.0-90.0","AVFMTS8A5R4XK","img_art/23.jpg","4","","","","","","","","","","","","","","","","","","","","","","","","",""
"1489","","image-button-response","96","1176823","0.0-91.0-0.0","AVFMTS8A5R4XK","img_art/23.jpg","1","","","","","","","","","","","","","","","","","","","","","","","","",""
"1342","","image-button-response","97","1178168","0.0-92.0-0.0","AVFMTS8A5R4XK","img_art/23.jpg","0","","","","","","","","","","","","","","","","","","","","","","","","",""
"null","","html-keyboard-response","98","1179171","0.0-93.0","AVFMTS8A5R4XK","<p style=""font-size: 48px;"">+</p>","","","","","null","allTrialResponses","1000","1","7","img_art/23.jpg","27","group of people","Zachary,Brett,Bryan,Sean,Anthony,Aaron","Vivid colors and the white in the middle looks like people dancing.,31,400,20","Universal celebration,40,360,20","Looks like fireworks.,21,400,20","so much detail .,31,40,20","The cluster of white silhouettes against the colorful background makes me feel uneasy for some reason,-36,200,20","I love the colors and the contrast.,50,20,20","Anthony","The cluster of white silhouettes against the colorful background makes me feel uneasy for some reason,-36,200,20","Brett","Universal celebration,40,360,20","Zachary","Vivid colors and the white in the middle looks like people dancing.,31,400,20","6"
"15011","","survey-text","99","1194189","0.0-94.0-0.0","AVFMTS8A5R4XK","","","","{""Q0"":""finest art""}","","","","","","","","","","","","","","","","","","","","","","",""
"4361.599999904633","","image-slider-response","100","1198553","0.0-95.0","AVFMTS8A5R4XK","","","","","23","","","","","","","","","","","","","","","","","","","","","",""
"2700","","image-button-response","101","1203567","0.0-96.0","AVFMTS8A5R4XK","img_art/19.jpg","4","","","","","","","","","","","","","","","","","","","","","","","","",""
"3347","","image-button-response","102","1206917","0.0-97.0","AVFMTS8A5R4XK","img_art/19.jpg","0","","","","","","","","","","","","","","","","","","","","","","","","",""
"1202","","image-button-response","103","1208122","0.0-98.0-0.0","AVFMTS8A5R4XK","img_art/19.jpg","2","","","","","","","","","","","","","","","","","","","","","","","","",""
"1213","","image-button-response","104","1209338","0.0-99.0-0.0","AVFMTS8A5R4XK","img_art/19.jpg","4","","","","","","","","","","","","","","","","","","","","","","","","",""
"null","","html-keyboard-response","105","1210342","0.0-100.0","AVFMTS8A5R4XK","<p style=""font-size: 48px;"">+</p>","","","","","null","allTrialResponses","1000","1","8","img_art/19.jpg","23","finest art","Zachary,Brett,Elijah,Gabriel,Anthony,Angel","Reminds me of a busy town. Chaotic in nature.,-11,400,20","Reminds me of a quaint little town I once visited in Italy,50,360,20","The details are amazing,36,80,20","not sure if i like it or not,1,160,20","Very, very ugly and sloppy,-31,200,20","This one feels pretty neutral. Like a window into someone's life, one person in a bustling metropolis.,0,180,20","Zachary","Reminds me of a busy town. Chaotic in nature.,-11,400,20","Elijah","The details are amazing,36,80,20","Anthony","Very, very ugly and sloppy,-31,200,20","6"
"10445","","survey-text","106","1220795","0.0-101.0-0.0","AVFMTS8A5R4XK","","","","{""Q0"":""trophy""}","","","","","","","","","","","","","","","","","","","","","","",""
"3606","","image-slider-response","107","1224403","0.0-102.0","AVFMTS8A5R4XK","","","","","20","","","","","","","","","","","","","","","","","","","","","",""
"null","","image-button-response","108","1229407","0.0-103.0","AVFMTS8A5R4XK","img_art/4.jpg","null","","","","","","","","","","","","","","","","","","","","","","","","",""
"1844","","image-button-response","109","1231253","0.0-104.0","AVFMTS8A5R4XK","img_art/4.jpg","0","","","","","","","","","","","","","","","","","","","","","","","","",""
"1582","","image-button-response","110","1232837","0.0-105.0-0.0","AVFMTS8A5R4XK","img_art/4.jpg","4","","","","","","","","","","","","","","","","","","","","","","","","",""
"769","","image-button-response","111","1233610","0.0-106.0-0.0","AVFMTS8A5R4XK","img_art/4.jpg","5","","","","","","","","","","","","","","","","","","","","","","","","",""
"null","","html-keyboard-response","112","1234613","0.0-107.0","AVFMTS8A5R4XK","<p style=""font-size: 48px;"">+</p>","","","","","null","allTrialResponses","1000","1","9","img_art/4.jpg","20","trophy","Zachary,Andrew,Elijah,Patrick,Anthony,Jason","Not a huge fan of the color story, but it reminds me of a child finger-painting.,12,400,20","Reminds me of a first place trophy,30,160,20","Looks like a hand, not very impressed,-22,80,20","Random swirls again,-30,280,20","Ugly and bland compared to the other pieces.,-33,200,20","I don't understand this at all,3,20,20","Zachary","Not a huge fan of the color story, but it reminds me of a child finger-painting.,12,400,20","Anthony","Ugly and bland compared to the other pieces.,-33,200,20","Jason","I don't understand this at all,3,20,20","6"
"16732","","survey-text","113","1251354","0.0-108.0-0.0","AVFMTS8A5R4XK","","","","{""Q0"":""giant ship""}","","","","","","","","","","","","","","","","","","","","","","",""
"4630.700000047684","","image-slider-response","114","1255987","0.0-109.0","AVFMTS8A5R4XK","","","","","22","","","","","","","","","","","","","","","","","","","","","",""
"null","","image-button-response","115","1264191","0.0-110.0","AVFMTS8A5R4XK","img_art/10.jpg","null","","","","","","","","","","","","","","","","","","","","","","","","",""
"10281","","image-button-response","116","1274474","0.0-111.0","AVFMTS8A5R4XK","img_art/10.jpg","4","","","","","","","","","","","","","","","","","","","","","","","","",""
"963","","image-button-response","117","1275440","0.0-112.0-0.0","AVFMTS8A5R4XK","img_art/10.jpg","2","","","","","","","","","","","","","","","","","","","","","","","","",""
"1047","","image-button-response","118","1276490","0.0-113.0-0.0","AVFMTS8A5R4XK","img_art/10.jpg","1","","","","","","","","","","","","","","","","","","","","","","","","",""
"null","","html-keyboard-response","119","1277686","0.0-114.0","AVFMTS8A5R4XK","<p style=""font-size: 48px;"">+</p>","","","","","null","allTrialResponses","1000","1","10","img_art/10.jpg","22","giant ship","Zachary,Scott,Ryan,Richard,Anthony,Jason","Reminds me of a terrarium with cacti inside. It reminds me of home.,27,400,20","kind of reminds me of a map,1,20,20","Reminds me of a beautiful ship wreck,36,380,20","interesting portrayal of a violin?,10,340,20","I am neutral towards the artwork,1,200,20","Picture looks smudged,-7,20,20","Anthony","I am neutral towards the artwork,1,200,20","Ryan","Reminds me of a beautiful ship wreck,36,380,20","Scott","kind of reminds me of a map,1,20,20","6"
"12451","","survey-text","120","1290147","0.0-115.0-0.0","AVFMTS8A5R4XK","","","","{""Q0"":""our""}","","","","","","","","","","","","","","","","","","","","","","",""
"12541","","survey-text","121","1302691","0.0-116.0-0.0","AVFMTS8A5R4XK","","","","{""Q0"":""water fall""}","","","","","","","","","","","","","","","","","","","","","","",""
"6321.700000047684","","image-slider-response","122","1309015","0.0-117.0","AVFMTS8A5R4XK","","","","","16","","","","","","","","","","","","","","","","","","","","","",""
"null","","image-button-response","123","1314023","0.0-118.0","AVFMTS8A5R4XK","img_art/24.jpg","null","","","","","","","","","","","","","","","","","","","","","","","","",""
"1353","","image-button-response","124","1315380","0.0-119.0","AVFMTS8A5R4XK","img_art/24.jpg","4","","","","","","","","","","","","","","","","","","","","","","","","",""
"951","","image-button-response","125","1316333","0.0-120.0-0.0","AVFMTS8A5R4XK","img_art/24.jpg","2","","","","","","","","","","","","","","","","","","","","","","","","",""
"1810","","image-button-response","126","1318146","0.0-121.0-0.0","AVFMTS8A5R4XK","img_art/24.jpg","1","","","","","","","","","","","","","","","","","","","","","","","","",""
"null","","html-keyboard-response","127","1319649","0.0-122.0","AVFMTS8A5R4XK","<p style=""font-size: 48px;"">+</p>","","","","","null","allTrialResponses","1500","1","11","img_art/24.jpg","16","water fall","Isaiah,Scott,Ryan,Paul,Anthony,Christian","I feel relaxed and happy, looking at the stream, but it feels hollow, like something is fake.,5,300,20","pretty like a waterfall,22,20,20","Beautiful,  peaceful,50,380,20","It looks alive, like I can hear the water flowing,41,300,20","This piece resembles a waterfall surrounded by trees.,21,200,20","organized mess at first glance, would love to inspect this in closer proximity,39,140,20","Anthony","This piece resembles a waterfall surrounded by trees.,21,200,20","Ryan","Beautiful,  peaceful,50,380,20","Scott","pretty like a waterfall,22,20,20","6"
"12539","","survey-text","128","1332198","0.0-123.0-0.0","AVFMTS8A5R4XK","","","","{""Q0"":""worst photos""}","","","","","","","","","","","","","","","","","","","","","","",""
"5681.099999904633","","image-slider-response","129","1337881","0.0-124.0","AVFMTS8A5R4XK","","","","","-26","","","","","","","","","","","","","","","","","","","","","",""
"3841","","image-button-response","130","1342884","0.0-125.0","AVFMTS8A5R4XK","img_art/1.jpg","1","","","","","","","","","","","","","","","","","","","","","","","","",""
"1741","","image-button-response","131","1344628","0.0-126.0","AVFMTS8A5R4XK","img_art/1.jpg","0","","","","","","","","","","","","","","","","","","","","","","","","",""
"1056","","image-button-response","132","1345686","0.0-127.0-0.0","AVFMTS8A5R4XK","img_art/1.jpg","2","","","","","","","","","","","","","","","","","","","","","","","","",""
"1427","","image-button-response","133","1347117","0.0-128.0-0.0","AVFMTS8A5R4XK","img_art/1.jpg","5","","","","","","","","","","","","","","","","","","","","","","","","",""
"null","","html-keyboard-response","134","1348128","0.0-129.0","AVFMTS8A5R4XK","<p style=""font-size: 48px;"">+</p>","","","","","null","allTrialResponses","1000","1","12","img_art/1.jpg","-26","worst photos","Juan,Scott,Ryan,Seth,Anthony,Austin","I don't like how this one makes me feel.,-32,260,20","good colors and contrast,31,20,20","Seems like one i previously saw in this survey,27,380,20","Might be a person rowing their boat across the lake. Not sure if the background is trees or not.,12,60,20","Bright and colorful without being overpowering,32,200,20","Absolutely love this painting,50,240,20","Juan","I don't like how this one makes me feel.,-32,260,20","Ryan","Seems like one i previously saw in this survey,27,380,20","Austin","Absolutely love this painting,50,240,20","6"
"15827","","survey-text","135","1363961","0.0-130.0-0.0","AVFMTS8A5R4XK","","","","{""Q0"":""super painting""}","","","","","","","","","","","","","","","","","","","","","","",""
"5836.100000143051","","image-slider-response","136","1369800","0.0-131.0","AVFMTS8A5R4XK","","","","","27","","","","","","","","","","","","","","","","","","","","","",""
"4196","","image-button-response","137","1374978","0.0-132.0","AVFMTS8A5R4XK","img_art/14.jpg","1","","","","","","","","","","","","","","","","","","","","","","","","",""
"1281","","image-button-response","138","1376261","0.0-133.0","AVFMTS8A5R4XK","img_art/14.jpg","1","","","","","","","","","","","","","","","","","","","","","","","","",""
"1924","","image-button-response","139","1378188","0.0-134.0-0.0","AVFMTS8A5R4XK","img_art/14.jpg","5","","","","","","","","","","","","","","","","","","","","","","","","",""
"1271","","image-button-response","140","1379462","0.0-135.0-0.0","AVFMTS8A5R4XK","img_art/14.jpg","4","","","","","","","","","","","","","","","","","","","","","","","","",""
"null","","html-keyboard-response","141","1380503","0.0-136.0","AVFMTS8A5R4XK","<p style=""font-size: 48px;"">+</p>","","","","","null","allTrialResponses","1000","1","13","img_art/14.jpg","27","super painting","Juan,Brandon,Ryan,Devin,Devon,Austin","I don't like the colors, but I espeically don't like all the negative space.,-20,260,20","Don't like the colors on this. Too simple,-20,320,20","Gorgeous use of water color,50,380,20","It looks nice colorwise but detail is lacking,18,380,20","this would make a very beautiful art project,22,400,20","Love the abstractness of this painting,39,240,20","Brandon","Don't like the colors on this. Too simple,-20,320,20","Austin","Love the abstractness of this painting,39,240,20","Devon","this would make a very beautiful art project,22,400,20","6"
"18023","","survey-text","142","1398533","0.0-137.0-0.0","AVFMTS8A5R4XK","","","","{""Q0"":""hidden pictures""}","","","","","","","","","","","","","","","","","","","","","","",""
"5700","","image-slider-response","143","1404235","0.0-138.0","AVFMTS8A5R4XK","","","","","21","","","","","","","","","","","","","","","","","","","","","",""
"2310","","image-button-response","144","1409239","0.0-139.0","AVFMTS8A5R4XK","img_art/28.jpg","4","","","","","","","","","","","","","","","","","","","","","","","","",""
"861","","image-button-response","145","1410103","0.0-140.0","AVFMTS8A5R4XK","img_art/28.jpg","1","","","","","","","","","","","","","","","","","","","","","","","","",""
"863","","image-button-response","146","1410968","0.0-141.0-0.0","AVFMTS8A5R4XK","img_art/28.jpg","2","","","","","","","","","","","","","","","","","","","","","","","","",""
"1086","","image-button-response","147","1412058","0.0-142.0-0.0","AVFMTS8A5R4XK","img_art/28.jpg","4","","","","","","","","","","","","","","","","","","","","","","","","",""
"null","","html-keyboard-response","148","1413560","0.0-143.0","AVFMTS8A5R4XK","<p style=""font-size: 48px;"">+</p>","","","","","null","allTrialResponses","1500","1","14","img_art/28.jpg","21","hidden pictures","Trevor,Brandon,Jacob,Tanner,Devon,Austin","very blah colors and it's not fun,-27,280,20","Interesting. I like the ""old woman"" on the left. Lots of different entities to look at,21,320,20","I can't tell what's going on but it looks a little bit more lively at least,7,340,20","almost reminds me of thomas becket getting his head cut off,21,180,20","i'm not too impressed with this one.,-10,400,20","Not really exciting,23,240,20","Brandon","Interesting. I like the ""old woman"" on the left. Lots of different entities to look at,21,320,20","Jacob","I can't tell what's going on but it looks a little bit more lively at least,7,340,20","Devon","i'm not too impressed with this one.,-10,400,20","6"
"434263","","survey-text","149","1847833","0.0-144.0-0.0","AVFMTS8A5R4XK","","","","{""Q0"":""tree""}","","","","","","","","","","","","","","","","","","","","","","",""
"10530","","survey-text","150","1860395","0.0-144.1-0.1","AVFMTS8A5R4XK","","","","{""Q0"":""tree in room""}","","","","","","","","","","","","","","","","","","","","","","",""
"3959.9000000953674","","image-slider-response","151","1864357","0.0-145.0","AVFMTS8A5R4XK","","","","","12","","","","","","","","","","","","","","","","","","","","","",""
"2705","","image-button-response","152","1869408","0.0-146.0","AVFMTS8A5R4XK","img_art/17.jpg","4","","","","","","","","","","","","","","","","","","","","","","","","",""
"4560","","image-button-response","153","1873972","0.0-147.0","AVFMTS8A5R4XK","img_art/17.jpg","1","","","","","","","","","","","","","","","","","","","","","","","","",""
"1780","","image-button-response","154","1875755","0.0-148.0-0.0","AVFMTS8A5R4XK","img_art/17.jpg","0","","","","","","","","","","","","","","","","","","","","","","","","",""
"1572","","image-button-response","155","1877330","0.0-149.0-0.0","AVFMTS8A5R4XK","img_art/17.jpg","3","","","","","","","","","","","","","","","","","","","","","","","","",""
"null","","html-keyboard-response","156","1877892","0.0-150.0","AVFMTS8A5R4XK","<p style=""font-size: 48px;"">+</p>","","","","","null","allTrialResponses","500","1","15","img_art/17.jpg","12","tree in room","Derek,Brandon,Jacob,Mitchell,Devon,Isaac","The colors are beautiful and the painting itself is magnificent,50,360,20","Love the color and nature motif,36,320,20","The way they painted the trees is so cool.,27,340,20","Nature coming to the inside of your space that you are locked into.,50,180,20","i feel some sadness in this picture,25,400,20","The colors are soft.,32,280,20","Brandon","Love the color and nature motif,36,320,20","Derek","The colors are beautiful and the painting itself is magnificent,50,360,20","Mitchell","Nature coming to the inside of your space that you are locked into.,50,180,20","6"
"7693","","survey-text","157","1885599","0.0-151.0-0.0","AVFMTS8A5R4XK","","","","{""Q0"":""course""}","","","","","","","","","","","","","","","","","","","","","","",""
"11114","","survey-text","158","1896716","0.0-152.0-0.0","AVFMTS8A5R4XK","","","","{""Q0"":""devil in room""}","","","","","","","","","","","","","","","","","","","","","","",""
"4407.200000047684","","image-slider-response","159","1901126","0.0-153.0","AVFMTS8A5R4XK","","","","","27","","","","","","","","","","","","","","","","","","","","","",""
"null","","image-button-response","160","1906129","0.0-154.0","AVFMTS8A5R4XK","img_art/9.jpg","null","","","","","","","","","","","","","","","","","","","","","","","","",""
"64614","","image-button-response","161","1970746","0.0-155.0","AVFMTS8A5R4XK","img_art/9.jpg","1","","","","","","","","","","","","","","","","","","","","","","","","",""
"1564","","image-button-response","162","1972314","0.0-156.0-0.0","AVFMTS8A5R4XK","img_art/9.jpg","4","","","","","","","","","","","","","","","","","","","","","","","","",""
"670","","image-button-response","163","1972986","0.0-157.0-0.0","AVFMTS8A5R4XK","img_art/9.jpg","5","","","","","","","","","","","","","","","","","","","","","","","","",""
"null","","html-keyboard-response","164","1974682","0.0-158.0","AVFMTS8A5R4XK","<p style=""font-size: 48px;"">+</p>","","","","","null","allTrialResponses","1500","1","16","img_art/9.jpg","27","devil in room","Derek,Brandon,Christopher,Mitchell,Cody,Joshua","It's wild and chaotic but also beautiful and has some kind of calming factor about it,20,360,20","I like the sense of forboding, the green creates a claustrophobic feeling,10,320,20","I really like the color balance but the image is odd,-5,160,20","Cozy, In her own world. feminine .,30,180,20","Feels angry .....,-40,180,20","Someone lying in bed?  Don't care for it.,-14,240,20","Brandon","I like the sense of forboding, the green creates a claustrophobic feeling,10,320,20","Cody","Feels angry .....,-40,180,20","Joshua","Someone lying in bed?  Don't care for it.,-14,240,20","6"
"117681","","survey-text","165","2092373","0.0-159.0-0.0","AVFMTS8A5R4XK","","","","{""Q0"":""rain drop""}","","","","","","","","","","","","","","","","","","","","","","",""
"4899","","image-slider-response","166","2097274","0.0-160.0","AVFMTS8A5R4XK","","","","","19","","","","","","","","","","","","","","","","","","","","","",""
"2488","","image-button-response","167","2102277","0.0-161.0","AVFMTS8A5R4XK","img_art/13.jpg","4","","","","","","","","","","","","","","","","","","","","","","","","",""
"1380","","image-button-response","168","2103661","0.0-162.0","AVFMTS8A5R4XK","img_art/13.jpg","4","","","","","","","","","","","","","","","","","","","","","","","","",""
"1241","","image-button-response","169","2104905","0.0-163.0-0.0","AVFMTS8A5R4XK","img_art/13.jpg","5","","","","","","","","","","","","","","","","","","","","","","","","",""
"1329","","image-button-response","170","2106237","0.0-164.0-0.0","AVFMTS8A5R4XK","img_art/13.jpg","1","","","","","","","","","","","","","","","","","","","","","","","","",""
"null","","html-keyboard-response","171","2107740","0.0-165.0","AVFMTS8A5R4XK","<p style=""font-size: 48px;"">+</p>","","","","","null","allTrialResponses","1500","1","17","img_art/13.jpg","19","rain drop","Bryce,Brandon,John,Evan,Cody,Joshua","My favorite!,47,20,20","Simple, but pleasing. The blue gradient is a favorite of mine,32,320,20","Pretty and it reminds me of rain droplets running down a window on a rainy day.,40,120,20","It reminds me of looking out the window on a stormy night at cars drive by,21,140,20","It's pretty ...........,41,180,20","Like this a lot and would hang in my house.,27,240,20","Cody","It's pretty ...........,41,180,20","Joshua","Like this a lot and would hang in my house.,27,240,20","Brandon","Simple, but pleasing. The blue gradient is a favorite of mine,32,320,20","6"
"14441","","survey-text","172","2122190","0.0-166.0-0.0","AVFMTS8A5R4XK","","","","{""Q0"":""television pics""}","","","","","","","","","","","","","","","","","","","","","","",""
"4491.699999809265","","image-slider-response","173","2126684","0.0-167.0","AVFMTS8A5R4XK","","","","","21","","","","","","","","","","","","","","","","","","","","","",""
"4666","","image-button-response","174","2131688","0.0-168.0","AVFMTS8A5R4XK","img_art/20.jpg","4","","","","","","","","","","","","","","","","","","","","","","","","",""
"602","","image-button-response","175","2132293","0.0-169.0","AVFMTS8A5R4XK","img_art/20.jpg","2","","","","","","","","","","","","","","","","","","","","","","","","",""
"599","","image-button-response","176","2132896","0.0-170.0-0.0","AVFMTS8A5R4XK","img_art/20.jpg","1","","","","","","","","","","","","","","","","","","","","","","","","",""
"1352","","image-button-response","177","2134252","0.0-171.0-0.0","AVFMTS8A5R4XK","img_art/20.jpg","5","","","","","","","","","","","","","","","","","","","","","","","","",""
"null","","html-keyboard-response","178","2135753","0.0-172.0","AVFMTS8A5R4XK","<p style=""font-size: 48px;"">+</p>","","","","","null","allTrialResponses","1500","1","18","img_art/20.jpg","21","television pics","Corey,Brandon,Jose,Jesus,Cody,Joshua","It seems to be a neutral cool toned art piece. Gives me alamo/desert vibes,2,260,20","I like the proportion of the car to the desert city, but too abstract for me,15,320,20","More dark colors and blurry objects.,13,200,20","Shapes are fun to interpret,21,100,20","I like the distortion of the objects, good colors,20,180,20","Reminds me of the Southwest; i.e. New Mexico or Arizona. It's interesting.,12,240,20","Jose","More dark colors and blurry objects.,13,200,20","Brandon","I like the proportion of the car to the desert city, but too abstract for me,15,320,20","Joshua","Reminds me of the Southwest; i.e. New Mexico or Arizona. It's interesting.,12,240,20","6"
"14136","","survey-text","179","2149900","0.0-173.0-0.0","AVFMTS8A5R4XK","","","","{""Q0"":""world from up""}","","","","","","","","","","","","","","","","","","","","","","",""
"4033.600000143051","","image-slider-response","180","2153936","0.0-174.0","AVFMTS8A5R4XK","","","","","32","","","","","","","","","","","","","","","","","","","","","",""
"3817","","image-button-response","181","2158953","0.0-175.0","AVFMTS8A5R4XK","img_art/29.jpg","0","","","","","","","","","","","","","","","","","","","","","","","","",""
"1148","","image-button-response","182","2160106","0.0-176.0","AVFMTS8A5R4XK","img_art/29.jpg","2","","","","","","","","","","","","","","","","","","","","","","","","",""
"408","","image-button-response","183","2160516","0.0-177.0-0.0","AVFMTS8A5R4XK","img_art/29.jpg","0","","","","","","","","","","","","","","","","","","","","","","","","",""
"814","","image-button-response","184","2161334","0.0-178.0-0.0","AVFMTS8A5R4XK","img_art/29.jpg","3","","","","","","","","","","","","","","","","","","","","","","","","",""
"null","","html-keyboard-response","185","2162352","0.0-179.0","AVFMTS8A5R4XK","<p style=""font-size: 48px;"">+</p>","","","","","null","allTrialResponses","1000","1","19","img_art/29.jpg","32","world from up","Nicholas,Brandon,Jose,Daniel,Brendan,Joshua","I love this things almost hidden in it like paint brush and other details,50,240,20","The black color is great, but I'm really not a fan of this hectic style,-40,320,20","I think the grey and red inspire negative feelings but it's not the worst thing.,13,200,20","Pinball meets a dark dream meets whale alien, drab,13,320,20","it looks like a prison,-33,340,20","I don't like the red X through it.,-20,240,20","Jose","I think the grey and red inspire negative feelings but it's not the worst thing.,13,200,20","Nicholas","I love this things almost hidden in it like paint brush and other details,50,240,20","Daniel","Pinball meets a dark dream meets whale alien, drab,13,320,20","6"
"12912","","survey-text","186","2175274","0.0-180.0-0.0","AVFMTS8A5R4XK","","","","{""Q0"":""tree in house""}","","","","","","","","","","","","","","","","","","","","","","",""
"6161.599999904633","","image-slider-response","187","2181438","0.0-181.0","AVFMTS8A5R4XK","","","","","22","","","","","","","","","","","","","","","","","","","","","",""
"null","","image-button-response","188","2186554","0.0-182.0","AVFMTS8A5R4XK","img_art/26.jpg","null","","","","","","","","","","","","","","","","","","","","","","","","",""
"927","","image-button-response","189","2187484","0.0-183.0","AVFMTS8A5R4XK","img_art/26.jpg","5","","","","","","","","","","","","","","","","","","","","","","","","",""
"2179","","image-button-response","190","2189666","0.0-184.0-0.0","AVFMTS8A5R4XK","img_art/26.jpg","1","","","","","","","","","","","","","","","","","","","","","","","","",""
"1167","","image-button-response","191","2190837","0.0-185.0-0.0","AVFMTS8A5R4XK","img_art/26.jpg","0","","","","","","","","","","","","","","","","","","","","","","","","",""
"null","","html-keyboard-response","192","2191903","0.0-186.0","AVFMTS8A5R4XK","<p style=""font-size: 48px;"">+</p>","","","","","null","allTrialResponses","1000","1","20","img_art/26.jpg","22","tree in house","Nicholas,Logan,Jose,Daniel,Taylor,Alejandro","I like the colors and trees. Seems cheap vintage retail store art but i love it anyways,50,240,20","I really love pastels and they're just being dimmed down too much here,-3,360,20","This style of objects that are supposed to be something but then are blurry is interesting.,38,200,20","Washed out suburban scene with childish tones.,-24,320,20","At least it is a bit of scenery.,10,200,20","Do not like water colors at all,-50,80,20","Alejandro","Do not like water colors at all,-50,80,20","Logan","I really love pastels and they're just being dimmed down too much here,-3,360,20","Nicholas","I like the colors and trees. Seems cheap vintage retail store art but i love it anyways,50,240,20","6"
"5017","","survey-text","193","2196933","0.0-187.0-0.0","AVFMTS8A5R4XK","","","","{""Q0"":""we""}","","","","","","","","","","","","","","","","","","","","","","",""
"13076","","survey-text","194","2210011","0.0-188.0-0.0","AVFMTS8A5R4XK","","","","{""Q0"":""worst painting""}","","","","","","","","","","","","","","","","","","","","","","",""
"4496.299999952316","","image-slider-response","195","2214509","0.0-189.0","AVFMTS8A5R4XK","","","","","-34","","","","","","","","","","","","","","","","","","","","","",""
"null","","image-button-response","196","2219527","0.0-190.0","AVFMTS8A5R4XK","img_art/2.jpg","null","","","","","","","","","","","","","","","","","","","","","","","","",""
"36247","","image-button-response","197","2255776","0.0-191.0","AVFMTS8A5R4XK","img_art/2.jpg","4","","","","","","","","","","","","","","","","","","","","","","","","",""
"1265","","image-button-response","198","2257044","0.0-192.0-0.0","AVFMTS8A5R4XK","img_art/2.jpg","1","","","","","","","","","","","","","","","","","","","","","","","","",""
"926","","image-button-response","199","2257973","0.0-193.0-0.0","AVFMTS8A5R4XK","img_art/2.jpg","2","","","","","","","","","","","","","","","","","","","","","","","","",""
"null","","html-keyboard-response","200","2259475","0.0-194.0","AVFMTS8A5R4XK","<p style=""font-size: 48px;"">+</p>","","","","","null","allTrialResponses","1500","1","21","img_art/2.jpg","-34","worst painting","Nicholas,Logan,Adrian,Noah,David,Alejandro","Cute and happy,22,240,20","omg she's so cute look at that little smile those eyelashes ugh love it,30,360,20","Not a fan of the colors or the style.,-31,60,20","again, I struggle to see the art and I dislike the green in particular.,-31,260,20","I feel that its too abstract for me to understand what I'm looking at.,-15,340,20","Looks contrived and like someone tried to hard to make it abstract,-31,80,20","David","I feel that its too abstract for me to understand what I'm looking at.,-15,340,20","Logan","omg she's so cute look at that little smile those eyelashes ugh love it,30,360,20","Adrian","Not a fan of the colors or the style.,-31,60,20","6"
"7480","","survey-text","201","2266965","0.0-195.0-0.0","AVFMTS8A5R4XK","","","","{""Q0"":""waste""}","","","","","","","","","","","","","","","","","","","","","","",""
"11644","","survey-text","202","2280554","0.0-195.1-0.1","AVFMTS8A5R4XK","","","","{""Q0"":""waste paper""}","","","","","","","","","","","","","","","","","","","","","","",""
"4508.799999952316","","image-slider-response","203","2285065","0.0-196.0","AVFMTS8A5R4XK","","","","","-17","","","","","","","","","","","","","","","","","","","","","",""
"1958","","image-button-response","204","2290069","0.0-197.0","AVFMTS8A5R4XK","img_art/12.jpg","4","","","","","","","","","","","","","","","","","","","","","","","","",""
"1111","","image-button-response","205","2291182","0.0-198.0","AVFMTS8A5R4XK","img_art/12.jpg","1","","","","","","","","","","","","","","","","","","","","","","","","",""
"1441","","image-button-response","206","2292626","0.0-199.0-0.0","AVFMTS8A5R4XK","img_art/12.jpg","3","","","","","","","","","","","","","","","","","","","","","","","","",""
"877","","image-button-response","207","2293506","0.0-200.0-0.0","AVFMTS8A5R4XK","img_art/12.jpg","4","","","","","","","","","","","","","","","","","","","","","","","","",""
"null","","html-keyboard-response","208","2295010","0.0-201.0","AVFMTS8A5R4XK","<p style=""font-size: 48px;"">+</p>","","","","","null","allTrialResponses","1500","1","22","img_art/12.jpg","-17","waste paper","Ethan,Logan,Adrian,Luis,David,Kenneth","The colors are ok. The piece reminds me of the 90s era, so I kinda like it!,-4,120,20","giving me major endless summer vibes,26,360,20","Ugly colors and I'm just not too much a fan of cubist abstract art.,-50,60,20","I like the fact it shares both light and edgy,32,400,20","This doesn't invoke anything. Just a mosaic of random images.,0,340,20","It's pretty, I find it interesting to look at.,10,300,20","Logan","giving me major endless summer vibes,26,360,20","Luis","I like the fact it shares both light and edgy,32,400,20","David","This doesn't invoke anything. Just a mosaic of random images.,0,340,20","6"
"13167","","survey-text","209","2308185","0.0-202.0-0.0","AVFMTS8A5R4XK","","","","{""Q0"":""devils home""}","","","","","","","","","","","","","","","","","","","","","","",""
"3784.5999999046326","","image-slider-response","210","2311972","0.0-203.0","AVFMTS8A5R4XK","","","","","14","","","","","","","","","","","","","","","","","","","","","",""
"3469","","image-button-response","211","2316975","0.0-204.0","AVFMTS8A5R4XK","img_art/8.jpg","2","","","","","","","","","","","","","","","","","","","","","","","","",""
"864","","image-button-response","212","2317843","0.0-205.0","AVFMTS8A5R4XK","img_art/8.jpg","1","","","","","","","","","","","","","","","","","","","","","","","","",""
"1255","","image-button-response","213","2319100","0.0-206.0-0.0","AVFMTS8A5R4XK","img_art/8.jpg","3","","","","","","","","","","","","","","","","","","","","","","","","",""
"882","","image-button-response","214","2319987","0.0-207.0-0.0","AVFMTS8A5R4XK","img_art/8.jpg","4","","","","","","","","","","","","","","","","","","","","","","","","",""
"null","","html-keyboard-response","215","2320989","0.0-208.0","AVFMTS8A5R4XK","<p style=""font-size: 48px;"">+</p>","","","","","null","allTrialResponses","1000","1","23","img_art/8.jpg","14","devils home","Michael,Logan,Nathaniel,Luis,David,Malik","It is interesting to look at. Abstract but ordered.,9,140,20","a cute little cute with some protectors,25,360,20","Not a fan of abstract looking pieces with too many focal points. The tunnel and face, for example,-31,220,20","I love the expressiveness of this,50,400,20","I like how the piece is showcasing emotion in relation to something.,25,340,20","Striking, but not my taste,20,40,20","Logan","a cute little cute with some protectors,25,360,20","Luis","I love the expressiveness of this,50,400,20","David","I like how the piece is showcasing emotion in relation to something.,25,340,20","6"
"18276","","survey-text","216","2339275","0.0-209.0-0.0","AVFMTS8A5R4XK","","","","{""Q0"":""yellow mob""}","","","","","","","","","","","","","","","","","","","","","","",""
"5092.900000095367","","image-slider-response","217","2344370","0.0-210.0","AVFMTS8A5R4XK","","","","","-10","","","","","","","","","","","","","","","","","","","","","",""
"1902","","image-button-response","218","2349374","0.0-211.0","AVFMTS8A5R4XK","img_art/5.jpg","4","","","","","","","","","","","","","","","","","","","","","","","","",""
"2521","","image-button-response","219","2351898","0.0-212.0","AVFMTS8A5R4XK","img_art/5.jpg","0","","","","","","","","","","","","","","","","","","","","","","","","",""
"884","","image-button-response","220","2352786","0.0-213.0-0.0","AVFMTS8A5R4XK","img_art/5.jpg","1","","","","","","","","","","","","","","","","","","","","","","","","",""
"1448","","image-button-response","221","2354237","0.0-214.0-0.0","AVFMTS8A5R4XK","img_art/5.jpg","3","","","","","","","","","","","","","","","","","","","","","","","","",""
"null","","html-keyboard-response","222","2355354","0.0-215.0","AVFMTS8A5R4XK","<p style=""font-size: 48px;"">+</p>","","","","","null","allTrialResponses","1000","1","24","img_art/5.jpg","-10","yellow mob","Jeremy,Logan,Alexander,Luis,David,Dakota","I don't hate it but I can't relate to it,1,60,20","Just doesn't do a whole lot for me. I see Cinderellas broom,-11,360,20","Dull pyramid that says nothing.,7,120,20","Very messy and not a lot of thought,-29,400,20","I like the simplicity of the design, but I can't tell what the image is trying to depict.,10,340,20","fresh and fun - bright and active,16,280,20","Jeremy","I don't hate it but I can't relate to it,1,60,20","Logan","Just doesn't do a whole lot for me. I see Cinderellas broom,-11,360,20","Luis","Very messy and not a lot of thought,-29,400,20","6"
"15175","","survey-text","223","2370537","0.0-216.0-0.0","AVFMTS8A5R4XK","","","","{""Q0"":""devil funeral""}","","","","","","","","","","","","","","","","","","","","","","",""
"4615","","image-slider-response","224","2375155","0.0-217.0","AVFMTS8A5R4XK","","","","","-25","","","","","","","","","","","","","","","","","","","","","",""
"3897","","image-button-response","225","2380235","0.0-218.0","AVFMTS8A5R4XK","img_art/6.jpg","1","","","","","","","","","","","","","","","","","","","","","","","","",""
"1826","","image-button-response","226","2382063","0.0-219.0","AVFMTS8A5R4XK","img_art/6.jpg","1","","","","","","","","","","","","","","","","","","","","","","","","",""
"2279","","image-button-response","227","2384345","0.0-220.0-0.0","AVFMTS8A5R4XK","img_art/6.jpg","4","","","","","","","","","","","","","","","","","","","","","","","","",""
"1395","","image-button-response","228","2385743","0.0-221.0-0.0","AVFMTS8A5R4XK","img_art/6.jpg","5","","","","","","","","","","","","","","","","","","","","","","","","",""
"null","","html-keyboard-response","229","2387246","0.0-222.0","AVFMTS8A5R4XK","<p style=""font-size: 48px;"">+</p>","","","","","null","allTrialResponses","1500","1","25","img_art/6.jpg","-25","devil funeral","Jeremy,Logan,Thomas,Luis,Nathan,Jake","Kind of boring. I don't care for many abstracts,1,60,20","boring. don't really like birds,1,360,20","I like the color and the gradient,10,220,20","I love the representation of death and life.,50,400,20","Not a fan of anything in this,-43,200,20","It feels sad but it's nice to look at.,4,360,20","Logan","boring. don't really like birds,1,360,20","Nathan","Not a fan of anything in this,-43,200,20","Jake","It feels sad but it's nice to look at.,4,360,20","6"
"7551","","survey-text","230","2394813","0.0-223.0-0.0","AVFMTS8A5R4XK","","","","{""Q0"":""table""}","","","","","","","","","","","","","","","","","","","","","","",""
"13678","","survey-text","231","2408493","0.0-224.0-0.0","AVFMTS8A5R4XK","","","","{""Q0"":""multi color""}","","","","","","","","","","","","","","","","","","","","","","",""
"4449.200000047684","","image-slider-response","232","2412945","0.0-225.0","AVFMTS8A5R4XK","","","","","13","","","","","","","","","","","","","","","","","","","","","",""
"3625","","image-button-response","233","2417949","0.0-226.0","AVFMTS8A5R4XK","img_art/27.jpg","1","","","","","","","","","","","","","","","","","","","","","","","","",""
"1073","","image-button-response","234","2419025","0.0-227.0","AVFMTS8A5R4XK","img_art/27.jpg","0","","","","","","","","","","","","","","","","","","","","","","","","",""
"922","","image-button-response","235","2419950","0.0-228.0-0.0","AVFMTS8A5R4XK","img_art/27.jpg","2","","","","","","","","","","","","","","","","","","","","","","","","",""
"1591","","image-button-response","236","2421544","0.0-229.0-0.0","AVFMTS8A5R4XK","img_art/27.jpg","4","","","","","","","","","","","","","","","","","","","","","","","","",""
"null","","html-keyboard-response","237","2423047","0.0-230.0","AVFMTS8A5R4XK","<p style=""font-size: 48px;"">+</p>","","","","","null","allTrialResponses","1500","1","26","img_art/27.jpg","13","multi color","Jorge,Logan,Timothy,Samuel,Nathan,Jake","dirty and misunderstood,-47,180,20","demon vs angel brawl over lemon lime sprite,-10,360,20","The colors in this one are wonderful,20,240,20","city at sunset brings happyness,10,400,20","Looks a bit like a child's project with unsatisfying colors,-31,200,20","This looks like a poor copy of Cy Twombly's style.,-3,360,20","Jorge","dirty and misunderstood,-47,180,20","Timothy","The colors in this one are wonderful,20,240,20","Nathan","Looks a bit like a child's project with unsatisfying colors,-31,200,20","6"
"20674","","survey-text","238","2443730","0.0-231.0-0.0","AVFMTS8A5R4XK","","","","{""Q0"":""water sand""}","","","","","","","","","","","","","","","","","","","","","","",""
"7313.299999952316","","image-slider-response","239","2451046","0.0-232.0","AVFMTS8A5R4XK","","","","","21","","","","","","","","","","","","","","","","","","","","","",""
"1678","","image-button-response","240","2456365","0.0-233.0","AVFMTS8A5R4XK","img_art/7.jpg","4","","","","","","","","","","","","","","","","","","","","","","","","",""
"817","","image-button-response","241","2457186","0.0-234.0","AVFMTS8A5R4XK","img_art/7.jpg","1","","","","","","","","","","","","","","","","","","","","","","","","",""
"1405","","image-button-response","242","2458594","0.0-235.0-0.0","AVFMTS8A5R4XK","img_art/7.jpg","3","","","","","","","","","","","","","","","","","","","","","","","","",""
"904","","image-button-response","243","2459501","0.0-236.0-0.0","AVFMTS8A5R4XK","img_art/7.jpg","4","","","","","","","","","","","","","","","","","","","","","","","","",""
"null","","html-keyboard-response","244","2460094","0.0-237.0","AVFMTS8A5R4XK","<p style=""font-size: 48px;"">+</p>","","","","","null","allTrialResponses","500","1","27","img_art/7.jpg","21","water sand","Jorge,Victor,Timothy,Vincent,Nathan,Tyler","time and change,1,180,20","I like the texture,12,340,20","This feels very earthy and grounded,20,240,20","One I would love to own . Calm relaxing spiritual and full of love,41,360,20","I don't like this kind of color scheme or look they went for,-50,200,20","Is this a painting, really? Very compelling if so, the texture work is incredible.,15,320,20","Victor","I like the texture,12,340,20","Vincent","One I would love to own . Calm relaxing spiritual and full of love,41,360,20","Nathan","I don't like this kind of color scheme or look they went for,-50,200,20","6"
"11968","","survey-text","245","2472072","0.0-238.0-0.0","AVFMTS8A5R4XK","","","","{""Q0"":""water line""}","","","","","","","","","","","","","","","","","","","","","","",""
"4480.5","","image-slider-response","246","2476555","0.0-239.0","AVFMTS8A5R4XK","","","","","16","","","","","","","","","","","","","","","","","","","","","",""
"2227","","image-button-response","247","2481572","0.0-240.0","AVFMTS8A5R4XK","img_art/30.jpg","3","","","","","","","","","","","","","","","","","","","","","","","","",""
"2351","","image-button-response","248","2483926","0.0-241.0","AVFMTS8A5R4XK","img_art/30.jpg","3","","","","","","","","","","","","","","","","","","","","","","","","",""
"1817","","image-button-response","249","2485745","0.0-242.0-0.0","AVFMTS8A5R4XK","img_art/30.jpg","1","","","","","","","","","","","","","","","","","","","","","","","","",""
"976","","image-button-response","250","2486724","0.0-243.0-0.0","AVFMTS8A5R4XK","img_art/30.jpg","2","","","","","","","","","","","","","","","","","","","","","","","","",""
"null","","html-keyboard-response","251","2488258","0.0-244.0","AVFMTS8A5R4XK","<p style=""font-size: 48px;"">+</p>","","","","","null","allTrialResponses","1500","1","28","img_art/30.jpg","16","water line","Tristan,Victor,Gregory,Vincent,Nathan,Jared","Too much abstraction for me, leaving my focus mainly on color. I like the texture.,-20,300,20","I just don't see the point of this piece,-11,340,20","Cool design and contrast of colors,30,220,20","Personal , calming conservative signature business ideal.,32,360,20","It's okay. It should either have stuck to the grey-blue, or added more red. Seems unorganized (maybe that's the point?),-9,200,20","i dont like how the colors are mixed,-6,400,20","Vincent","Personal , calming conservative signature business ideal.,32,360,20","Victor","I just don't see the point of this piece,-11,340,20","Gregory","Cool design and contrast of colors,30,220,20","6"
"15427","","survey-text","252","2503774","0.0-245.0-0.0","AVFMTS8A5R4XK","","","","{""Q0"":""bunch of fruit""}","","","","","","","","","","","","","","","","","","","","","","",""
"3234.9000000953674","","image-slider-response","253","2507012","0.0-246.0","AVFMTS8A5R4XK","","","","","16","","","","","","","","","","","","","","","","","","","","","",""
"3629","","image-button-response","254","2512062","0.0-247.0","AVFMTS8A5R4XK","img_art/15.jpg","0","","","","","","","","","","","","","","","","","","","","","","","","",""
"5173","","image-button-response","255","2517238","0.0-248.0","AVFMTS8A5R4XK","img_art/15.jpg","5","","","","","","","","","","","","","","","","","","","","","","","","",""
"1024","","image-button-response","256","2518265","0.0-249.0-0.0","AVFMTS8A5R4XK","img_art/15.jpg","1","","","","","","","","","","","","","","","","","","","","","","","","",""
"993","","image-button-response","257","2519262","0.0-250.0-0.0","AVFMTS8A5R4XK","img_art/15.jpg","4","","","","","","","","","","","","","","","","","","","","","","","","",""
"null","","html-keyboard-response","258","2520822","0.0-251.0","AVFMTS8A5R4XK","<p style=""font-size: 48px;"">+</p>","","","","","null","allTrialResponses","1500","1","29","img_art/15.jpg","16","bunch of fruit","Shawn,Victor,Gregory,Vincent,Chase,Dylan","Like the composition and lines,26,100,20","I like the random blue dabs to break up the black, but it looks unfinished.,4,340,20","Black and blue is my favorite color combination,35,220,20","I like the colors and the different style This brings,7,360,20","I don't like how the black dots are aligned.,-20,120,20","This is sort of ugly, but I do like the design.,10,40,20","Dylan","This is sort of ugly, but I do like the design.,10,40,20","Victor","I like the random blue dabs to break up the black, but it looks unfinished.,4,340,20","Chase","I don't like how the black dots are aligned.,-20,120,20","6"
"8888","","survey-text","259","2529720","0.0-252.0-0.0","AVFMTS8A5R4XK","","","","{""Q0"":""waste of arts""}","","","","","","","","","","","","","","","","","","","","","","",""
"3849.2999999523163","","image-slider-response","260","2533571","0.0-253.0","AVFMTS8A5R4XK","","","","","-11","","","","","","","","","","","","","","","","","","","","","",""
"1838","","image-button-response","261","2538575","0.0-254.0","AVFMTS8A5R4XK","img_art/22.jpg","4","","","","","","","","","","","","","","","","","","","","","","","","",""
"866","","image-button-response","262","2539445","0.0-255.0","AVFMTS8A5R4XK","img_art/22.jpg","4","","","","","","","","","","","","","","","","","","","","","","","","",""
"964","","image-button-response","263","2540411","0.0-256.0-0.0","AVFMTS8A5R4XK","img_art/22.jpg","0","","","","","","","","","","","","","","","","","","","","","","","","",""
"1600","","image-button-response","264","2542014","0.0-257.0-0.0","AVFMTS8A5R4XK","img_art/22.jpg","0","","","","","","","","","","","","","","","","","","","","","","","","",""
"1125","","image-button-response","265","2548403","0.0-257.1-0.1","AVFMTS8A5R4XK","img_art/22.jpg","2","","","","","","","","","","","","","","","","","","","","","","","","",""
"null","","html-keyboard-response","266","2549906","0.0-258.0","AVFMTS8A5R4XK","<p style=""font-size: 48px;"">+</p>","","","","","null","allTrialResponses","1500","1","30","img_art/22.jpg","-11","waste of arts","Lucas,Victor,Peter,Dalton,Chase,Dylan","Unfortunately, I can't see anything special in this painting.,-20,380,20","I don't really know why, I just like looking at it,10,340,20","Just neutral no feelings,2,320,20","i think its pretty but im not sure what i see,1,300,20","I feel like I've seen this one already.,-9,120,20","The colors in this picture are nice.,32,40,20","Chase","I feel like I've seen this one already.,-9,120,20","Lucas","Unfortunately, I can't see anything special in this painting.,-20,380,20","Peter","Just neutral no feelings,2,320,20","8"
"10278","","image-button-response_instructions","267","2560194","0.0-259.0","AVFMTS8A5R4XK","","0","instructions","","","","","","","","","","","","","","","","","","","","","","","",""
"1731","","image-button-response","268","2561934","0.0-260.0","AVFMTS8A5R4XK","","0","","","","","","","","","","","","","","","","","","","","","","","","",""
