"rt","url","trial_type","trial_index","time_elapsed","internal_node_id","participant_id","stimulus","button_pressed","Name","responses","response","key_press","variableName","fixationTime","condition","trial","photo","subjectRating","subjectResponse","agentsNames","agent_1_Response","agent_2_Response","agent_3_Response","agent_4_Response","agent_5_Response","agent_6_Response","kept_1_name","kept_1_response","kept_2_name","kept_2_response","kept_3_name","kept_3_response","errorCounter"
"10537","external_page_harvard.html","external-html","0","10728","0.0-0.0","AWAHIWLMQ0HUQ","","","","","","","","","","","","","","","","","","","","","","","","","","",""
"1709","","image-button-response","1","12444","0.0-1.0","AWAHIWLMQ0HUQ","","0","","","","","","","","","","","","","","","","","","","","","","","","",""
"1573","","image-button-response","2","14025","0.0-2.0-0.0","AWAHIWLMQ0HUQ","","1","phone","","","","","","","","","","","","","","","","","","","","","","","",""
"6468","","survey-text","3","20498","0.0-3.0-0.0","AWAHIWLMQ0HUQ","","","","{""Q0"":""AWAHIWLMQ0HUQ""}","","","","","","","","","","","","","","","","","","","","","","",""
"3078","","image-button-response_instructions","4","23581","0.0-4.0","AWAHIWLMQ0HUQ","","0","instructions","","","","","","","","","","","","","","","","","","","","","","","",""
"10177","","image-button-response_instructions","5","33762","0.0-5.0","AWAHIWLMQ0HUQ","img_art/ins/popularity/ins1.png","0","instructions","","","","","","","","","","","","","","","","","","","","","","","",""
"4337","","image-button-response_instructions","6","38102","0.0-6.0","AWAHIWLMQ0HUQ","img_art/ins/popularity/ins2.png","0","instructions","","","","","","","","","","","","","","","","","","","","","","","",""
"5053","","image-button-response_instructions","7","43161","0.0-7.0","AWAHIWLMQ0HUQ","img_art/ins/popularity/ins2Extreme.png","0","instructions","","","","","","","","","","","","","","","","","","","","","","","",""
"10964","","image-button-response_instructions","8","54127","0.0-8.0","AWAHIWLMQ0HUQ","img_art/ins/popularity/ins3KEEPpop.PNG","0","instructions","","","","","","","","","","","","","","","","","","","","","","","",""
"2065","","image-button-response_instructions","9","56195","0.0-9.0","AWAHIWLMQ0HUQ","img_art/ins/popularity/ins3ANamepop.PNG","0","instructions","","","","","","","","","","","","","","","","","","","","","","","",""
"1913","","image-button-response_instructions","10","58111","0.0-10.0","AWAHIWLMQ0HUQ","img_art/ins/popularity/ins3ARatingpop.png","0","instructions","","","","","","","","","","","","","","","","","","","","","","","",""
"1177","","image-button-response_instructions","11","59290","0.0-11.0","AWAHIWLMQ0HUQ","img_art/ins/popularity/ins3ATextpop.png","0","instructions","","","","","","","","","","","","","","","","","","","","","","","",""
"5448","","image-button-response_instructions","12","64742","0.0-12.0","AWAHIWLMQ0HUQ","img_art/ins/popularity/ins3ALikespop.png","0","instructions","","","","","","","","","","","","","","","","","","","","","","","",""
"12338","","image-button-response_instructions","13","77082","0.0-13.0","AWAHIWLMQ0HUQ","img_art/ins/popularity/ins3KEEPpop.PNG","0","instructions","","","","","","","","","","","","","","","","","","","","","","","",""
"7236","","image-button-response_instructions","14","84320","0.0-14.0","AWAHIWLMQ0HUQ","img_art/ins/popularity/ins3_5RED.png","0","instructions","","","","","","","","","","","","","","","","","","","","","","","",""
"4373","","image-button-response_instructions","15","88697","0.0-15.0","AWAHIWLMQ0HUQ","img_art/ins/popularity/ins3KEEPpop.PNG","0","instructions","","","","","","","","","","","","","","","","","","","","","","","",""
"9882","","image-button-response_instructions","16","98581","0.0-16.0","AWAHIWLMQ0HUQ","img_art/ins/popularity/ins4KEEPpop.PNG","0","instructions","","","","","","","","","","","","","","","","","","","","","","","",""
"3165","","image-button-response_instructions","17","101748","0.0-17.0","AWAHIWLMQ0HUQ","img_art/ins/popularity/ins5KEEPpop.PNG","0","instructions","","","","","","","","","","","","","","","","","","","","","","","",""
"1441","","image-button-response_instructions","18","103191","0.0-18.0","AWAHIWLMQ0HUQ","","0","instructions","","","","","","","","","","","","","","","","","","","","","","","",""
"5892","","survey-text","19","109141","0.0-19.0-0.0","AWAHIWLMQ0HUQ","","","","{""Q0"":""but""}","","","","","","","","","","","","","","","","","","","","","","",""
"25235","","survey-text","20","134380","0.0-20.0-0.0","AWAHIWLMQ0HUQ","","","","{""Q0"":""It seems very chaotic and like someone just used random brush strokes.""}","","","","","","","","","","","","","","","","","","","","","","",""
"3871.8000000715256","","image-slider-response","21","138267","0.0-21.0","AWAHIWLMQ0HUQ","","","","","-39","","","","","","","","","","","","","","","","","","","","","",""
"null","","image-button-response","22","143278","0.0-22.0","AWAHIWLMQ0HUQ","img_art/ins/1.jpg","null","","","","","","","","","","","","","","","","","","","","","","","","",""
"3031","","image-button-response","23","146314","0.0-23.0","AWAHIWLMQ0HUQ","img_art/ins/1.jpg","4","","","","","","","","","","","","","","","","","","","","","","","","",""
"5081","","image-button-response","24","151400","0.0-24.0-0.0","AWAHIWLMQ0HUQ","img_art/ins/1.jpg","0","","","","","","","","","","","","","","","","","","","","","","","","",""
"4954","","image-button-response","25","156357","0.0-25.0-0.0","AWAHIWLMQ0HUQ","img_art/ins/1.jpg","1","","","","","","","","","","","","","","","","","","","","","","","","",""
"null","","html-keyboard-response","26","157863","0.0-26.0","AWAHIWLMQ0HUQ","<p style=""font-size: 48px;"">+</p>","","","","","null","allTrialResponses","1500","1","-2","img_art/ins/1.jpg","-39","It seems very chaotic and like someone just used random brush strokes.","Adam,Alex,Ben,Carl,Daniel,Jack","Seems like doodles,-20,20,20","very creative work.,36,40,20","This color reminds me of poo,-46,60,20","very calming artwork,42,80,20","It looks like a murder scene.,-48,100,20","I like the sophisticated brushwork,40,120,20","Daniel","It looks like a murder scene.,-48,100,20","Adam","Seems like doodles,-20,20,20","Alex","very creative work.,36,40,20","0"
"21195","","survey-text","27","179067","0.0-27.0-0.0","AWAHIWLMQ0HUQ","","","","{""Q0"":""This seems like a very abstract painting of a city/buildings.""}","","","","","","","","","","","","","","","","","","","","","","",""
"7989.799999952316","","image-slider-response","28","187067","0.0-28.0","AWAHIWLMQ0HUQ","","","","","12","","","","","","","","","","","","","","","","","","","","","",""
"4784","","image-button-response","29","192077","0.0-29.0","AWAHIWLMQ0HUQ","img_art/ins/2.jpg","2","","","","","","","","","","","","","","","","","","","","","","","","",""
"3281","","image-button-response","30","195365","0.0-30.0","AWAHIWLMQ0HUQ","img_art/ins/2.jpg","2","","","","","","","","","","","","","","","","","","","","","","","","",""
"5569","","image-button-response","31","200939","0.0-31.0-0.0","AWAHIWLMQ0HUQ","img_art/ins/2.jpg","1","","","","","","","","","","","","","","","","","","","","","","","","",""
"4119","","image-button-response","32","205065","0.0-32.0-0.0","AWAHIWLMQ0HUQ","img_art/ins/2.jpg","3","","","","","","","","","","","","","","","","","","","","","","","","",""
"null","","html-keyboard-response","33","206574","0.0-33.0","AWAHIWLMQ0HUQ","<p style=""font-size: 48px;"">+</p>","","","","","null","allTrialResponses","1500","1","-1","img_art/ins/2.jpg","12","This seems like a very abstract painting of a city/buildings.","Adam,Alex,John,James,Daniel,Kyle","too much color,-18,20,20","I like the blocks of color arrangements,30,40,20","love the texture of paint,48,160,20","looks too angry,-50,140,20","One of my pet peevs,-48,100,20","Idk, it is just annoying,-32,180,20","John","love the texture of paint,48,160,20","Alex","I like the blocks of color arrangements,30,40,20","James","looks too angry,-50,140,20","0"
"23326","","survey-text","34","229908","0.0-34.0-0.0","AWAHIWLMQ0HUQ","","","","{""Q0"":""I think the colors of this painting fit really well together and make it look nice.""}","","","","","","","","","","","","","","","","","","","","","","",""
"5662.300000071526","","image-slider-response","35","235575","0.0-35.0","AWAHIWLMQ0HUQ","","","","","35","","","","","","","","","","","","","","","","","","","","","",""
"4938","","image-button-response","36","240580","0.0-36.0","AWAHIWLMQ0HUQ","img_art/ins/3.jpg","1","","","","","","","","","","","","","","","","","","","","","","","","",""
"983","","image-button-response","37","241568","0.0-37.0","AWAHIWLMQ0HUQ","img_art/ins/3.jpg","0","","","","","","","","","","","","","","","","","","","","","","","","",""
"1079","","image-button-response","38","242652","0.0-38.0-0.0","AWAHIWLMQ0HUQ","img_art/ins/3.jpg","1","","","","","","","","","","","","","","","","","","","","","","","","",""
"1309","","image-button-response","39","243965","0.0-39.0-0.0","AWAHIWLMQ0HUQ","img_art/ins/3.jpg","0","","","","","","","","","","","","","","","","","","","","","","","","",""
"3124","","image-button-response","40","251391","0.0-39.1-0.1","AWAHIWLMQ0HUQ","img_art/ins/3.jpg","2","","","","","","","","","","","","","","","","","","","","","","","","",""
"null","","html-keyboard-response","41","252897","0.0-40.0","AWAHIWLMQ0HUQ","<p style=""font-size: 48px;"">+</p>","","","","","null","allTrialResponses","1500","1","0","img_art/ins/3.jpg","35","I think the colors of this painting fit really well together and make it look nice.","Mike,Alex,John,James,Ron,Sam","enjoy the different shades of blue,22,200,20","calming blue is very nice,36,40,20","I like the overlapping of brushes,41,160,20","My worst nightmare,-42,140,20","It looks depressing,-26,220,20","I can feel a rainy day from this painting,18,240,20","Mike","enjoy the different shades of blue,22,200,20","Alex","calming blue is very nice,36,40,20","John","I like the overlapping of brushes,41,160,20","2"
"4108","","image-button-response_instructions","42","257022","0.0-41.0","AWAHIWLMQ0HUQ","","0","instructions","","","","","","","","","","","","","","","","","","","","","","","",""
"10151","","survey-likert","43","267176","0.0-42.0-0.0","AWAHIWLMQ0HUQ","","","","{""Q0"":"""",""Q1"":0,""Q2"":1}","","","","","","","","","","","","","","","","","","","","","","",""
"4255","","survey-text","44","271456","0.0-43.0-0.0","AWAHIWLMQ0HUQ","","","","{""Q0"":""rock""}","","","","","","","","","","","","","","","","","","","","","","",""
"15837","","survey-text","45","287296","0.0-44.0-0.0","AWAHIWLMQ0HUQ","","","","{""Q0"":""This seems like random scribbles to me.""}","","","","","","","","","","","","","","","","","","","","","","",""
"4382.699999928474","","image-slider-response","46","291685","0.0-45.0","AWAHIWLMQ0HUQ","","","","","-38","","","","","","","","","","","","","","","","","","","","","",""
"null","","image-button-response","47","296720","0.0-46.0","AWAHIWLMQ0HUQ","img_art/3.jpg","null","","","","","","","","","","","","","","","","","","","","","","","","",""
"5965","","image-button-response","48","302689","0.0-47.0","AWAHIWLMQ0HUQ","img_art/3.jpg","4","","","","","","","","","","","","","","","","","","","","","","","","",""
"4063","","image-button-response","49","306757","0.0-48.0-0.0","AWAHIWLMQ0HUQ","img_art/3.jpg","0","","","","","","","","","","","","","","","","","","","","","","","","",""
"1847","","image-button-response","50","308609","0.0-49.0-0.0","AWAHIWLMQ0HUQ","img_art/3.jpg","5","","","","","","","","","","","","","","","","","","","","","","","","",""
"null","","html-keyboard-response","51","310118","0.0-50.0","AWAHIWLMQ0HUQ","<p style=""font-size: 48px;"">+</p>","","","","","null","allTrialResponses","1500","1","1","img_art/3.jpg","-38","This seems like random scribbles to me.","Shane,Dalton,Chase,Connor,Ian,Cole","Too much red or blood,-28,80,20","Blood splatter and one black spot.,1,300,20","Looks like a bloody head with teeth.,-16,120,20","Shapes are interesting but color is overwhelming,5,240,20","It just makes me think of blood splattered everywhere.,-31,260,20","Sharp peaks look like sharp teeth,-37,200,20","Ian","It just makes me think of blood splattered everywhere.,-31,260,20","Shane","Too much red or blood,-28,80,20","Cole","Sharp peaks look like sharp teeth,-37,200,20","2"
"24993","","survey-text","52","335119","0.0-51.0-0.0","AWAHIWLMQ0HUQ","","","","{""Q0"":""This seems like an abstract watercolor painting of a city scape""}","","","","","","","","","","","","","","","","","","","","","","",""
"4294.799999952316","","image-slider-response","53","339420","0.0-52.0","AWAHIWLMQ0HUQ","","","","","16","","","","","","","","","","","","","","","","","","","","","",""
"4023","","image-button-response","54","344429","0.0-53.0","AWAHIWLMQ0HUQ","img_art/19.jpg","0","","","","","","","","","","","","","","","","","","","","","","","","",""
"1675","","image-button-response","55","346106","0.0-54.0","AWAHIWLMQ0HUQ","img_art/19.jpg","0","","","","","","","","","","","","","","","","","","","","","","","","",""
"14454","","image-button-response","56","360564","0.0-55.0-0.0","AWAHIWLMQ0HUQ","img_art/19.jpg","3","","","","","","","","","","","","","","","","","","","","","","","","",""
"3114","","image-button-response","57","363686","0.0-56.0-0.0","AWAHIWLMQ0HUQ","img_art/19.jpg","1","","","","","","","","","","","","","","","","","","","","","","","","",""
"null","","html-keyboard-response","58","364689","0.0-57.0","AWAHIWLMQ0HUQ","<p style=""font-size: 48px;"">+</p>","","","","","null","allTrialResponses","1000","1","2","img_art/19.jpg","16","This seems like an abstract watercolor painting of a city scape","Shane,Mitchell,Mason,Angel,Ian,Cole","A day in a small city,45,80,20","Higher power looking down at its creation with a half smile and some hurt.,45,180,20","calming, like the drips,25,100,20","This one feels pretty neutral. Like a window into someone's life, one person in a bustling metropolis.,0,180,20","It looks cool but at the time looks like it was done by a talented 5 year old.,13,260,20","Its simple and the colors i like. It reminds me of chagall,34,200,20","Shane","A day in a small city,45,80,20","Angel","This one feels pretty neutral. Like a window into someone's life, one person in a bustling metropolis.,0,180,20","Mitchell","Higher power looking down at its creation with a half smile and some hurt.,45,180,20","2"
"19450","","survey-text","59","384144","0.0-58.0-0.0","AWAHIWLMQ0HUQ","","","","{""Q0"":""Looks like a house in a neighborhood but doesn't have very good brush strokes.""}","","","","","","","","","","","","","","","","","","","","","","",""
"1990","","image-slider-response","60","386140","0.0-59.0","AWAHIWLMQ0HUQ","","","","","-15","","","","","","","","","","","","","","","","","","","","","",""
"null","","image-button-response","61","391145","0.0-60.0","AWAHIWLMQ0HUQ","img_art/26.jpg","null","","","","","","","","","","","","","","","","","","","","","","","","",""
"2359","","image-button-response","62","393508","0.0-61.0","AWAHIWLMQ0HUQ","img_art/26.jpg","1","","","","","","","","","","","","","","","","","","","","","","","","",""
"6104","","image-button-response","63","399617","0.0-62.0-0.0","AWAHIWLMQ0HUQ","img_art/26.jpg","3","","","","","","","","","","","","","","","","","","","","","","","","",""
"3861","","image-button-response","64","403484","0.0-63.0-0.0","AWAHIWLMQ0HUQ","img_art/26.jpg","2","","","","","","","","","","","","","","","","","","","","","","","","",""
"null","","html-keyboard-response","65","404990","0.0-64.0","AWAHIWLMQ0HUQ","<p style=""font-size: 48px;"">+</p>","","","","","null","allTrialResponses","1500","1","3","img_art/26.jpg","-15","Looks like a house in a neighborhood but doesn't have very good brush strokes.","Shane,Mitchell,Jake,Angel,Corey,Christian","Colors are full and reminds me of a messy room,-9,80,20","Incomplete, The artist painted his impression of somthing he was thinking of,0,180,20","It's not ugly but not beautiful at all.,-3,360,20","This piece feels pretty chill like it's just a normal day in the city.,10,180,20","its boring and i dont like the color palette,3,260,20","love the ""lowkey"" vibrant colors that are colorful but at the same time greyscale,12,140,20","Mitchell","Incomplete, The artist painted his impression of somthing he was thinking of,0,180,20","Angel","This piece feels pretty chill like it's just a normal day in the city.,10,180,20","Jake","It's not ugly but not beautiful at all.,-3,360,20","2"
"10241","","survey-text","66","415240","0.0-65.0-0.0","AWAHIWLMQ0HUQ","","","","{""Q0"":""Looks like random dots of black paint.""}","","","","","","","","","","","","","","","","","","","","","","",""
"4623.099999904633","","image-slider-response","67","419870","0.0-66.0","AWAHIWLMQ0HUQ","","","","","-30","","","","","","","","","","","","","","","","","","","","","",""
"2267","","image-button-response","68","424879","0.0-67.0","AWAHIWLMQ0HUQ","img_art/15.jpg","0","","","","","","","","","","","","","","","","","","","","","","","","",""
"569","","image-button-response","69","425454","0.0-68.0","AWAHIWLMQ0HUQ","img_art/15.jpg","0","","","","","","","","","","","","","","","","","","","","","","","","",""
"6940","","image-button-response","70","432400","0.0-69.0-0.0","AWAHIWLMQ0HUQ","img_art/15.jpg","2","","","","","","","","","","","","","","","","","","","","","","","","",""
"2901","","image-button-response","71","435305","0.0-70.0-0.0","AWAHIWLMQ0HUQ","img_art/15.jpg","4","","","","","","","","","","","","","","","","","","","","","","","","",""
"null","","html-keyboard-response","72","435812","0.0-71.0","AWAHIWLMQ0HUQ","<p style=""font-size: 48px;"">+</p>","","","","","null","allTrialResponses","500","1","4","img_art/15.jpg","-30","Looks like random dots of black paint.","Lucas,Mitchell,Jake,Angel,Peter,Samuel","I can't see the meaning of the painting.,-30,380,20","ants on the ground playing with bubble gum. They may be thinking of how they can use it to build something,-30,180,20","This looks odd and was not well executed.,-3,360,20","This is looking at a forest from above. I can see water and some pathways throughout. Nature.,20,180,20","It's just dots. Doesn't bring any positive or negative feelings,2,320,20","Black reminds me of darkness,-18,400,20","Lucas","I can't see the meaning of the painting.,-30,380,20","Jake","This looks odd and was not well executed.,-3,360,20","Peter","It's just dots. Doesn't bring any positive or negative feelings,2,320,20","2"
"24477","","survey-text","73","460298","0.0-72.0-0.0","AWAHIWLMQ0HUQ","","","","{""Q0"":""Looks like it could be two people talking to each other in the middle of the painting.""}","","","","","","","","","","","","","","","","","","","","","","",""
"5458.899999976158","","image-slider-response","74","465760","0.0-73.0","AWAHIWLMQ0HUQ","","","","","5","","","","","","","","","","","","","","","","","","","","","",""
"null","","image-button-response","75","470769","0.0-74.0","AWAHIWLMQ0HUQ","img_art/28.jpg","null","","","","","","","","","","","","","","","","","","","","","","","","",""
"9423","","image-button-response","76","480197","0.0-75.0","AWAHIWLMQ0HUQ","img_art/28.jpg","4","","","","","","","","","","","","","","","","","","","","","","","","",""
"2172","","image-button-response","77","482372","0.0-76.0-0.0","AWAHIWLMQ0HUQ","img_art/28.jpg","0","","","","","","","","","","","","","","","","","","","","","","","","",""
"2732","","image-button-response","78","485108","0.0-77.0-0.0","AWAHIWLMQ0HUQ","img_art/28.jpg","5","","","","","","","","","","","","","","","","","","","","","","","","",""
"null","","html-keyboard-response","79","486613","0.0-78.0","AWAHIWLMQ0HUQ","<p style=""font-size: 48px;"">+</p>","","","","","null","allTrialResponses","1500","1","5","img_art/28.jpg","5","Looks like it could be two people talking to each other in the middle of the painting.","Lucas,Jordan,Jake,Travis,Peter,Adam","This painting is mysterious, it makes me curious.,5,380,20","A messy bed room,-7,160,20","This is very ugly with poor colors.,-23,360,20","Hate it...brown and drab,-37,260,20","The earthy colors smeared around looks like prison food tray,-17,320,20","Dislike the colors.,-20,40,20","Peter","The earthy colors smeared around looks like prison food tray,-17,320,20","Lucas","This painting is mysterious, it makes me curious.,5,380,20","Adam","Dislike the colors.,-20,40,20","2"
"3027","","survey-text","80","489655","0.0-79.0-0.0","AWAHIWLMQ0HUQ","","","","{""Q0"":""sky""}","","","","","","","","","","","","","","","","","","","","","","",""
"17205","","survey-text","81","506864","0.0-80.0-0.0","AWAHIWLMQ0HUQ","","","","{""Q0"":""Looks like footprints in the sand or maybe an above painting of mars.""}","","","","","","","","","","","","","","","","","","","","","","",""
"2754.5","","image-slider-response","82","509625","0.0-81.0","AWAHIWLMQ0HUQ","","","","","32","","","","","","","","","","","","","","","","","","","","","",""
"null","","image-button-response","83","514633","0.0-82.0","AWAHIWLMQ0HUQ","img_art/7.jpg","null","","","","","","","","","","","","","","","","","","","","","","","","",""
"2383","","image-button-response","84","517020","0.0-83.0","AWAHIWLMQ0HUQ","img_art/7.jpg","2","","","","","","","","","","","","","","","","","","","","","","","","",""
"2632","","image-button-response","85","519657","0.0-84.0-0.0","AWAHIWLMQ0HUQ","img_art/7.jpg","4","","","","","","","","","","","","","","","","","","","","","","","","",""
"1867","","image-button-response","86","521530","0.0-85.0-0.0","AWAHIWLMQ0HUQ","img_art/7.jpg","3","","","","","","","","","","","","","","","","","","","","","","","","",""
"null","","html-keyboard-response","87","523034","0.0-86.0","AWAHIWLMQ0HUQ","<p style=""font-size: 48px;"">+</p>","","","","","null","allTrialResponses","1500","1","6","img_art/7.jpg","32","Looks like footprints in the sand or maybe an above painting of mars.","Lucas,Carlos,Jack,Joshua,Peter,Adam","Don't understand the meaning of this picture.,-30,380,20","The dried bottom of a puddle in July.,-41,80,20","reminds me of a desert from far above,23,320,20","Looks almost like a photograph of nature.,11,240,20","It's just like sand from the beach,2,320,20","I like the earth tones here,5,40,20","Jack","reminds me of a desert from far above,23,320,20","Peter","It's just like sand from the beach,2,320,20","Joshua","Looks almost like a photograph of nature.,11,240,20","2"
"14220","","survey-text","88","537261","0.0-87.0-0.0","AWAHIWLMQ0HUQ","","","","{""Q0"":""Looks like a very abstract and distorted hand.""}","","","","","","","","","","","","","","","","","","","","","","",""
"6947.200000047684","","image-slider-response","89","544213","0.0-88.0","AWAHIWLMQ0HUQ","","","","","-5","","","","","","","","","","","","","","","","","","","","","",""
"null","","image-button-response","90","549219","0.0-89.0","AWAHIWLMQ0HUQ","img_art/4.jpg","null","","","","","","","","","","","","","","","","","","","","","","","","",""
"2747","","image-button-response","91","551971","0.0-90.0","AWAHIWLMQ0HUQ","img_art/4.jpg","2","","","","","","","","","","","","","","","","","","","","","","","","",""
"3412","","image-button-response","92","555389","0.0-91.0-0.0","AWAHIWLMQ0HUQ","img_art/4.jpg","5","","","","","","","","","","","","","","","","","","","","","","","","",""
"5856","","image-button-response","93","561251","0.0-92.0-0.0","AWAHIWLMQ0HUQ","img_art/4.jpg","3","","","","","","","","","","","","","","","","","","","","","","","","",""
"null","","html-keyboard-response","94","562258","0.0-93.0","AWAHIWLMQ0HUQ","<p style=""font-size: 48px;"">+</p>","","","","","null","allTrialResponses","1000","1","7","img_art/4.jpg","-5","Looks like a very abstract and distorted hand.","Nathaniel,Logan,Jack,Joshua,Peter,Zachary","Boring and tasteless. Almost reminds me of when an art gallery called a banana 'art',-42,220,20","it looks like a preschooler just dragged his fingers around,-36,360,20","creepy, looks like a deformed hand, but the background is pretty,5,320,20","looks very rudimentary and too simple.,-14,240,20","Looks like poop on walks,-27,320,20","Not a huge fan of the color story, but it reminds me of a child finger-painting.,12,400,20","Jack","creepy, looks like a deformed hand, but the background is pretty,5,320,20","Zachary","Not a huge fan of the color story, but it reminds me of a child finger-painting.,12,400,20","Joshua","looks very rudimentary and too simple.,-14,240,20","2"
"20913","","survey-text","95","583178","0.0-94.0-0.0","AWAHIWLMQ0HUQ","","","","{""Q0"":""The picture is chaotic but the colors actually seem to flow pretty well.""}","","","","","","","","","","","","","","","","","","","","","","",""
"3315.600000023842","","image-slider-response","96","586498","0.0-95.0","AWAHIWLMQ0HUQ","","","","","6","","","","","","","","","","","","","","","","","","","","","",""
"null","","image-button-response","97","591503","0.0-96.0","AWAHIWLMQ0HUQ","img_art/1.jpg","null","","","","","","","","","","","","","","","","","","","","","","","","",""
"921","","image-button-response","98","592427","0.0-97.0","AWAHIWLMQ0HUQ","img_art/1.jpg","1","","","","","","","","","","","","","","","","","","","","","","","","",""
"950","","image-button-response","99","593382","0.0-98.0-0.0","AWAHIWLMQ0HUQ","img_art/1.jpg","2","","","","","","","","","","","","","","","","","","","","","","","","",""
"2016","","image-button-response","100","595403","0.0-99.0-0.0","AWAHIWLMQ0HUQ","img_art/1.jpg","3","","","","","","","","","","","","","","","","","","","","","","","","",""
"null","","html-keyboard-response","101","595906","0.0-100.0","AWAHIWLMQ0HUQ","<p style=""font-size: 48px;"">+</p>","","","","","null","allTrialResponses","500","1","8","img_art/1.jpg","6","The picture is chaotic but the colors actually seem to flow pretty well.","Jorge,Colton,Jack,Joshua,Dylan,Zachary","fishing on the lake surrounded by trees,42,180,20","the colors are nice,8,220,20","beautiful colors and brush strokes,47,320,20","Reminds me of fall.,7,240,20","I love the warm colors of the art,32,40,20","While I like the colors, I find nothing interesting or thought provoking about it.,10,400,20","Colton","the colors are nice,8,220,20","Jack","beautiful colors and brush strokes,47,320,20","Joshua","Reminds me of fall.,7,240,20","2"
"10690","","survey-text","102","606604","0.0-101.0-0.0","AWAHIWLMQ0HUQ","","","","{""Q0"":""Looks like an alien figure in a field.""}","","","","","","","","","","","","","","","","","","","","","","",""
"3102.7999999523163","","image-slider-response","103","609711","0.0-102.0","AWAHIWLMQ0HUQ","","","","","15","","","","","","","","","","","","","","","","","","","","","",""
"null","","image-button-response","104","614719","0.0-103.0","AWAHIWLMQ0HUQ","img_art/25.jpg","null","","","","","","","","","","","","","","","","","","","","","","","","",""
"514","","image-button-response","105","615238","0.0-104.0","AWAHIWLMQ0HUQ","img_art/25.jpg","2","","","","","","","","","","","","","","","","","","","","","","","","",""
"1683","","image-button-response","106","616926","0.0-105.0-0.0","AWAHIWLMQ0HUQ","img_art/25.jpg","5","","","","","","","","","","","","","","","","","","","","","","","","",""
"2416","","image-button-response","107","619347","0.0-106.0-0.0","AWAHIWLMQ0HUQ","img_art/25.jpg","4","","","","","","","","","","","","","","","","","","","","","","","","",""
"null","","html-keyboard-response","108","619851","0.0-107.0","AWAHIWLMQ0HUQ","<p style=""font-size: 48px;"">+</p>","","","","","null","allTrialResponses","500","1","9","img_art/25.jpg","15","Looks like an alien figure in a field.","Marcus,Colton,Jack,Joshua,Brendan,Devon","Ugly green color and don't like it at all,-30,60,20","the colors are pretty,11,220,20","beautiful in a primitive way,10,320,20","Looks like a voodoo figure in a New Orleans cemetery at night.,-5,240,20","is this an ancient woman?,-16,340,20","i feel a bit dull, a bit scared,-20,400,20","Jack","beautiful in a primitive way,10,320,20","Devon","i feel a bit dull, a bit scared,-20,400,20","Brendan","is this an ancient woman?,-16,340,20","2"
"14157","","survey-text","109","634018","0.0-108.0-0.0","AWAHIWLMQ0HUQ","","","","{""Q0"":""Looks almost like an abstract guitar painting.""}","","","","","","","","","","","","","","","","","","","","","","",""
"6358.799999952316","","image-slider-response","110","640379","0.0-109.0","AWAHIWLMQ0HUQ","","","","","10","","","","","","","","","","","","","","","","","","","","","",""
"null","","image-button-response","111","645388","0.0-110.0","AWAHIWLMQ0HUQ","img_art/10.jpg","null","","","","","","","","","","","","","","","","","","","","","","","","",""
"3460","","image-button-response","112","648852","0.0-111.0","AWAHIWLMQ0HUQ","img_art/10.jpg","2","","","","","","","","","","","","","","","","","","","","","","","","",""
"5975","","image-button-response","113","654833","0.0-112.0-0.0","AWAHIWLMQ0HUQ","img_art/10.jpg","5","","","","","","","","","","","","","","","","","","","","","","","","",""
"2872","","image-button-response","114","657710","0.0-113.0-0.0","AWAHIWLMQ0HUQ","img_art/10.jpg","0","","","","","","","","","","","","","","","","","","","","","","","","",""
"null","","html-keyboard-response","115","658717","0.0-114.0","AWAHIWLMQ0HUQ","<p style=""font-size: 48px;"">+</p>","","","","","null","allTrialResponses","1000","1","10","img_art/10.jpg","10","Looks almost like an abstract guitar painting.","Jared,Eric,Jack,Evan,Brendan,Devon","it just doesnt appeal to me.,-10,400,20","This piece is unusual in a way that makes me uncomfortable.,-5,100,20","this piece is okay. I wish it was more colorful, but it is certainly intriguing.,23,320,20","My immediate thought is WTF is this,-20,140,20","a blue whale on the sea,12,340,20","awww... this looks very nice,32,400,20","Jack","this piece is okay. I wish it was more colorful, but it is certainly intriguing.,23,320,20","Devon","awww... this looks very nice,32,400,20","Jared","it just doesnt appeal to me.,-10,400,20","2"
"2733","","survey-text","116","661465","0.0-115.0-0.0","AWAHIWLMQ0HUQ","","","","{""Q0"":""our""}","","","","","","","","","","","","","","","","","","","","","","",""
"10813","","survey-text","117","672286","0.0-116.0-0.0","AWAHIWLMQ0HUQ","","","","{""Q0"":""Looks like a factory in the desert.""}","","","","","","","","","","","","","","","","","","","","","","",""
"5298.899999976158","","image-slider-response","118","677595","0.0-117.0","AWAHIWLMQ0HUQ","","","","","4","","","","","","","","","","","","","","","","","","","","","",""
"null","","image-button-response","119","682606","0.0-118.0","AWAHIWLMQ0HUQ","img_art/20.jpg","null","","","","","","","","","","","","","","","","","","","","","","","","",""
"691","","image-button-response","120","683300","0.0-119.0","AWAHIWLMQ0HUQ","img_art/20.jpg","1","","","","","","","","","","","","","","","","","","","","","","","","",""
"3694","","image-button-response","121","686999","0.0-120.0-0.0","AWAHIWLMQ0HUQ","img_art/20.jpg","3","","","","","","","","","","","","","","","","","","","","","","","","",""
"2454","","image-button-response","122","689461","0.0-121.0-0.0","AWAHIWLMQ0HUQ","img_art/20.jpg","4","","","","","","","","","","","","","","","","","","","","","","","","",""
"null","","html-keyboard-response","123","690966","0.0-122.0","AWAHIWLMQ0HUQ","<p style=""font-size: 48px;"">+</p>","","","","","null","allTrialResponses","1500","1","11","img_art/20.jpg","4","Looks like a factory in the desert.","Jared,Jesus,Jack,Elijah,Aaron,Devon","i like the rounded edges,18,400,20","Shapes are fun to interpret,21,100,20","could look for hours. love the brush work. color choices look like a desert.,50,320,20","Makes me feel impressed,9,80,20","I would like it more without the frame.,10,20,20","i can feel the intensity in this,11,400,20","Jesus","Shapes are fun to interpret,21,100,20","Elijah","Makes me feel impressed,9,80,20","Aaron","I would like it more without the frame.,10,20,20","2"
"19380","","survey-text","124","710362","0.0-123.0-0.0","AWAHIWLMQ0HUQ","","","","{""Q0"":""I really like how the colors flow together in this artwork.""}","","","","","","","","","","","","","","","","","","","","","","",""
"5438","","image-slider-response","125","715804","0.0-124.0","AWAHIWLMQ0HUQ","","","","","35","","","","","","","","","","","","","","","","","","","","","",""
"3966","","image-button-response","126","720813","0.0-125.0","AWAHIWLMQ0HUQ","img_art/22.jpg","1","","","","","","","","","","","","","","","","","","","","","","","","",""
"849","","image-button-response","127","721667","0.0-126.0","AWAHIWLMQ0HUQ","img_art/22.jpg","1","","","","","","","","","","","","","","","","","","","","","","","","",""
"4592","","image-button-response","128","726264","0.0-127.0-0.0","AWAHIWLMQ0HUQ","img_art/22.jpg","5","","","","","","","","","","","","","","","","","","","","","","","","",""
"5182","","image-button-response","129","731453","0.0-128.0-0.0","AWAHIWLMQ0HUQ","img_art/22.jpg","3","","","","","","","","","","","","","","","","","","","","","","","","",""
"null","","html-keyboard-response","130","732461","0.0-129.0","AWAHIWLMQ0HUQ","<p style=""font-size: 48px;"">+</p>","","","","","null","allTrialResponses","1000","1","12","img_art/22.jpg","35","I really like how the colors flow together in this artwork.","Brian,Jesus,Mark,Elijah,Aaron,Vincent","this is too generic,-27,380,20","Different shapes within the image make it interesting to look at,20,100,20","I don't feel much of anything.,0,80,20","Makes me feel a bit anxious,6,80,20","Boring, typical abstract art,-30,20,20","Can fit with anyone. And in any home a great piece of art,35,360,20","Jesus","Different shapes within the image make it interesting to look at,20,100,20","Vincent","Can fit with anyone. And in any home a great piece of art,35,360,20","Elijah","Makes me feel a bit anxious,6,80,20","2"
"13057","","survey-text","131","745528","0.0-130.0-0.0","AWAHIWLMQ0HUQ","","","","{""Q0"":""Looks like a painting of the desert hung up on a wall.""}","","","","","","","","","","","","","","","","","","","","","","",""
"3647.899999976158","","image-slider-response","132","749180","0.0-131.0","AWAHIWLMQ0HUQ","","","","","20","","","","","","","","","","","","","","","","","","","","","",""
"null","","image-button-response","133","754186","0.0-132.0","AWAHIWLMQ0HUQ","img_art/9.jpg","null","","","","","","","","","","","","","","","","","","","","","","","","",""
"788","","image-button-response","134","754977","0.0-133.0","AWAHIWLMQ0HUQ","img_art/9.jpg","0","","","","","","","","","","","","","","","","","","","","","","","","",""
"2599","","image-button-response","135","757580","0.0-134.0-0.0","AWAHIWLMQ0HUQ","img_art/9.jpg","3","","","","","","","","","","","","","","","","","","","","","","","","",""
"3381","","image-button-response","136","760967","0.0-135.0-0.0","AWAHIWLMQ0HUQ","img_art/9.jpg","5","","","","","","","","","","","","","","","","","","","","","","","","",""
"null","","html-keyboard-response","137","761971","0.0-136.0","AWAHIWLMQ0HUQ","<p style=""font-size: 48px;"">+</p>","","","","","null","allTrialResponses","1000","1","13","img_art/9.jpg","20","Looks like a painting of the desert hung up on a wall.","Matthew,Jesus,Tanner,Elijah,Bryan,Vincent","Similar to the tohers, but not as clear.,11,120,20","I enjoy the design, but the colors look waxy,-7,100,20","sleep, calm, safe,12,180,20","It's a mix of paint splash and scribbling,-33,80,20","Huh?  Doesn't invoke much.,-37,400,20","This speaks to me like a personalities and sides and not all are nice,19,360,20","Matthew","Similar to the tohers, but not as clear.,11,120,20","Elijah","It's a mix of paint splash and scribbling,-33,80,20","Vincent","This speaks to me like a personalities and sides and not all are nice,19,360,20","2"
"16239","","survey-text","138","778218","0.0-137.0-0.0","AWAHIWLMQ0HUQ","","","","{""Q0"":""I can't really make much out of this painting, it seems random.""}","","","","","","","","","","","","","","","","","","","","","","",""
"5290.700000047684","","image-slider-response","139","783513","0.0-138.0","AWAHIWLMQ0HUQ","","","","","-37","","","","","","","","","","","","","","","","","","","","","",""
"null","","image-button-response","140","788522","0.0-139.0","AWAHIWLMQ0HUQ","img_art/2.jpg","null","","","","","","","","","","","","","","","","","","","","","","","","",""
"596","","image-button-response","141","789122","0.0-140.0","AWAHIWLMQ0HUQ","img_art/2.jpg","1","","","","","","","","","","","","","","","","","","","","","","","","",""
"2091","","image-button-response","142","791218","0.0-141.0-0.0","AWAHIWLMQ0HUQ","img_art/2.jpg","3","","","","","","","","","","","","","","","","","","","","","","","","",""
"6970","","image-button-response","143","798193","0.0-142.0-0.0","AWAHIWLMQ0HUQ","img_art/2.jpg","0","","","","","","","","","","","","","","","","","","","","","","","","",""
"null","","html-keyboard-response","144","799700","0.0-143.0","AWAHIWLMQ0HUQ","<p style=""font-size: 48px;"">+</p>","","","","","null","allTrialResponses","1500","1","14","img_art/2.jpg","-37","I can't really make much out of this painting, it seems random.","Matthew,Tyler,Edward,Elijah,Garrett,Vincent","I think I can make out a face in there.,25,120,20","Grim and overwhelming,-6,320,20","My immediate reaction was it looked like a class but then I saw a smile in the middle,11,60,20","It's just a splash of paint on a canvas,-31,80,20","I like this picture a little because the colors make it look a little vibrant.,10,180,20","This reminds me of a peaceful day out alone shopping and spending some me time,41,360,20","Tyler","Grim and overwhelming,-6,320,20","Elijah","It's just a splash of paint on a canvas,-31,80,20","Matthew","I think I can make out a face in there.,25,120,20","2"
"12346","","survey-text","145","812055","0.0-144.0-0.0","AWAHIWLMQ0HUQ","","","","{""Q0"":""This is very overwhelming and hurts my eyes to look at.""}","","","","","","","","","","","","","","","","","","","","","","",""
"3350.3000000715256","","image-slider-response","146","815409","0.0-145.0","AWAHIWLMQ0HUQ","","","","","-46","","","","","","","","","","","","","","","","","","","","","",""
"null","","image-button-response","147","820417","0.0-146.0","AWAHIWLMQ0HUQ","img_art/12.jpg","null","","","","","","","","","","","","","","","","","","","","","","","","",""
"511","","image-button-response","148","820932","0.0-147.0","AWAHIWLMQ0HUQ","img_art/12.jpg","3","","","","","","","","","","","","","","","","","","","","","","","","",""
"854","","image-button-response","149","821792","0.0-148.0-0.0","AWAHIWLMQ0HUQ","img_art/12.jpg","4","","","","","","","","","","","","","","","","","","","","","","","","",""
"2089","","image-button-response","150","823887","0.0-149.0-0.0","AWAHIWLMQ0HUQ","img_art/12.jpg","5","","","","","","","","","","","","","","","","","","","","","","","","",""
"null","","html-keyboard-response","151","825394","0.0-150.0","AWAHIWLMQ0HUQ","<p style=""font-size: 48px;"">+</p>","","","","","null","allTrialResponses","1500","1","15","img_art/12.jpg","-46","This is very overwhelming and hurts my eyes to look at.","Matthew,Tyler,Nathan,Elijah,Alexander,David","It's boxy, cubist immpressionism? Very ncie.,32,120,20","Different enough to be memorable. The gradient of hues is appealing and appeasing.,32,320,20","Kind of interesting, seems almost nostalgic in a way to me.,10,200,20","It makes me feel confused,-15,80,20","Ugly color combinations, no focus.,-25,120,20","This doesn't invoke anything. Just a mosaic of random images.,0,340,20","Elijah","It makes me feel confused,-15,80,20","Alexander","Ugly color combinations, no focus.,-25,120,20","David","This doesn't invoke anything. Just a mosaic of random images.,0,340,20","2"
"3248","","survey-text","152","828657","0.0-151.0-0.0","AWAHIWLMQ0HUQ","","","","{""Q0"":""course""}","","","","","","","","","","","","","","","","","","","","","","",""
"15857","","survey-text","153","844517","0.0-152.0-0.0","AWAHIWLMQ0HUQ","","","","{""Q0"":""I like the abstract-ness and the combination of color and black and white.""}","","","","","","","","","","","","","","","","","","","","","","",""
"3601.899999976158","","image-slider-response","154","848123","0.0-153.0","AWAHIWLMQ0HUQ","","","","","36","","","","","","","","","","","","","","","","","","","","","",""
"null","","image-button-response","155","853127","0.0-154.0","AWAHIWLMQ0HUQ","img_art/16.jpg","null","","","","","","","","","","","","","","","","","","","","","","","","",""
"2030","","image-button-response","156","855161","0.0-155.0","AWAHIWLMQ0HUQ","img_art/16.jpg","2","","","","","","","","","","","","","","","","","","","","","","","","",""
"3374","","image-button-response","157","858540","0.0-156.0-0.0","AWAHIWLMQ0HUQ","img_art/16.jpg","4","","","","","","","","","","","","","","","","","","","","","","","","",""
"4174","","image-button-response","158","862718","0.0-157.0-0.0","AWAHIWLMQ0HUQ","img_art/16.jpg","0","","","","","","","","","","","","","","","","","","","","","","","","",""
"null","","html-keyboard-response","159","864225","0.0-158.0","AWAHIWLMQ0HUQ","<p style=""font-size: 48px;"">+</p>","","","","","null","allTrialResponses","1500","1","16","img_art/16.jpg","36","I like the abstract-ness and the combination of color and black and white.","Dakota,Dustin,Luke,Elijah,Alexander,David","depressing and confrontational,-9,280,20","Upsetting and disturbing. Random bear and indistinguishable objects. None of it goes together. Too chaotic and random,-50,20,20","while simple, it seems to have a deeper meaning on childhood,33,20,20","The bear is terrifying,-50,80,20","Strange and bleak.,-20,120,20","The colored teddy bear clashes with the color scheme.,-20,340,20","Luke","while simple, it seems to have a deeper meaning on childhood,33,20,20","Alexander","Strange and bleak.,-20,120,20","Dakota","depressing and confrontational,-9,280,20","2"
"15465","","survey-text","160","879700","0.0-159.0-0.0","AWAHIWLMQ0HUQ","","","","{""Q0"":""This seems like a young person's painting of trees.""}","","","","","","","","","","","","","","","","","","","","","","",""
"3074.7999999523163","","image-slider-response","161","882778","0.0-160.0","AWAHIWLMQ0HUQ","","","","","-6","","","","","","","","","","","","","","","","","","","","","",""
"null","","image-button-response","162","887784","0.0-161.0","AWAHIWLMQ0HUQ","img_art/27.jpg","null","","","","","","","","","","","","","","","","","","","","","","","","",""
"1050","","image-button-response","163","888839","0.0-162.0","AWAHIWLMQ0HUQ","img_art/27.jpg","4","","","","","","","","","","","","","","","","","","","","","","","","",""
"2063","","image-button-response","164","890905","0.0-163.0-0.0","AWAHIWLMQ0HUQ","img_art/27.jpg","2","","","","","","","","","","","","","","","","","","","","","","","","",""
"3035","","image-button-response","165","893944","0.0-164.0-0.0","AWAHIWLMQ0HUQ","img_art/27.jpg","1","","","","","","","","","","","","","","","","","","","","","","","","",""
"null","","html-keyboard-response","166","894951","0.0-165.0","AWAHIWLMQ0HUQ","<p style=""font-size: 48px;"">+</p>","","","","","null","allTrialResponses","1000","1","17","img_art/27.jpg","-6","This seems like a young person's painting of trees.","Dakota,Devin,Luke,Hunter,Alexander,Derek","feels like a bar scene, tucked away in the corner of a small town,-40,280,20","Looks like the green bits were added on later,-1,380,20","it looks very simple and childlike,-31,20,20","reminds me of kandinsky,10,240,20","Messy field of various plants.,-5,120,20","I love the mood of this painting,30,360,20","Alexander","Messy field of various plants.,-5,120,20","Luke","it looks very simple and childlike,-31,20,20","Devin","Looks like the green bits were added on later,-1,380,20","2"
"17730","","survey-text","167","912691","0.0-166.0-0.0","AWAHIWLMQ0HUQ","","","","{""Q0"":""I like the colors in this and the randomness of what seems like paint splatters.""}","","","","","","","","","","","","","","","","","","","","","","",""
"4778","","image-slider-response","168","917472","0.0-167.0","AWAHIWLMQ0HUQ","","","","","20","","","","","","","","","","","","","","","","","","","","","",""
"null","","image-button-response","169","922478","0.0-168.0","AWAHIWLMQ0HUQ","img_art/13.jpg","null","","","","","","","","","","","","","","","","","","","","","","","","",""
"861","","image-button-response","170","923342","0.0-169.0","AWAHIWLMQ0HUQ","img_art/13.jpg","1","","","","","","","","","","","","","","","","","","","","","","","","",""
"711","","image-button-response","171","924057","0.0-170.0-0.0","AWAHIWLMQ0HUQ","img_art/13.jpg","2","","","","","","","","","","","","","","","","","","","","","","","","",""
"3607","","image-button-response","172","927668","0.0-171.0-0.0","AWAHIWLMQ0HUQ","img_art/13.jpg","3","","","","","","","","","","","","","","","","","","","","","","","","",""
"null","","html-keyboard-response","173","928174","0.0-172.0","AWAHIWLMQ0HUQ","<p style=""font-size: 48px;"">+</p>","","","","","null","allTrialResponses","500","1","18","img_art/13.jpg","20","I like the colors in this and the randomness of what seems like paint splatters.","Michael,Devin,Luke,Jeremy,Alexander,Bryce","I don't car for it but it does seem organized and like it took considereably more skill that others.,9,140,20","Really love the colors,11,380,20","the monochrome of blue with splatters makes me excited and happy,36,20,20","Pleased. I like to combination of colors,17,60,20","Seeing the world through different lenses.,15,120,20","My favorite!,47,20,20","Devin","Really love the colors,11,380,20","Luke","the monochrome of blue with splatters makes me excited and happy,36,20,20","Jeremy","Pleased. I like to combination of colors,17,60,20","2"
"17055","","survey-text","174","945238","0.0-173.0-0.0","AWAHIWLMQ0HUQ","","","","{""Q0"":""Looks almost like colorful telephone poles and wires.""}","","","","","","","","","","","","","","","","","","","","","","",""
"4120.600000023842","","image-slider-response","175","949363","0.0-174.0","AWAHIWLMQ0HUQ","","","","","15","","","","","","","","","","","","","","","","","","","","","",""
"4831","","image-button-response","176","954372","0.0-175.0","AWAHIWLMQ0HUQ","img_art/11.jpg","0","","","","","","","","","","","","","","","","","","","","","","","","",""
"673","","image-button-response","177","955048","0.0-176.0","AWAHIWLMQ0HUQ","img_art/11.jpg","0","","","","","","","","","","","","","","","","","","","","","","","","",""
"1414","","image-button-response","178","956467","0.0-177.0-0.0","AWAHIWLMQ0HUQ","img_art/11.jpg","1","","","","","","","","","","","","","","","","","","","","","","","","",""
"2500","","image-button-response","179","958972","0.0-178.0-0.0","AWAHIWLMQ0HUQ","img_art/11.jpg","5","","","","","","","","","","","","","","","","","","","","","","","","",""
"null","","html-keyboard-response","180","960478","0.0-179.0","AWAHIWLMQ0HUQ","<p style=""font-size: 48px;"">+</p>","","","","","null","allTrialResponses","1500","1","19","img_art/11.jpg","15","Looks almost like colorful telephone poles and wires.","John,Devin,Luke,Jeremy,Juan,Tristan","Its interesting.,20,120,20","I like the vibe of the painting,-3,380,20","it reminds me of music,43,20,20","gave me a sense of gloom,-21,60,20","It makes me think of a rainy day and I like the colors. Also like the wavy lines.,22,260,20","Simple and complex. Hopeful yet dark. I love this,35,300,20","John","Its interesting.,20,120,20","Devin","I like the vibe of the painting,-3,380,20","Tristan","Simple and complex. Hopeful yet dark. I love this,35,300,20","2"
"15528","","survey-text","181","976019","0.0-180.0-0.0","AWAHIWLMQ0HUQ","","","","{""Q0"":""Looks like a garbage bag with pink smoke coming out.""}","","","","","","","","","","","","","","","","","","","","","","",""
"4505.399999976158","","image-slider-response","182","980528","0.0-181.0","AWAHIWLMQ0HUQ","","","","","-20","","","","","","","","","","","","","","","","","","","","","",""
"null","","image-button-response","183","985535","0.0-182.0","AWAHIWLMQ0HUQ","img_art/5.jpg","null","","","","","","","","","","","","","","","","","","","","","","","","",""
"1725","","image-button-response","184","987264","0.0-183.0","AWAHIWLMQ0HUQ","img_art/5.jpg","2","","","","","","","","","","","","","","","","","","","","","","","","",""
"5610","","image-button-response","185","992879","0.0-184.0-0.0","AWAHIWLMQ0HUQ","img_art/5.jpg","4","","","","","","","","","","","","","","","","","","","","","","","","",""
"1236","","image-button-response","186","994124","0.0-185.0-0.0","AWAHIWLMQ0HUQ","img_art/5.jpg","5","","","","","","","","","","","","","","","","","","","","","","","","",""
"null","","html-keyboard-response","187","995130","0.0-186.0","AWAHIWLMQ0HUQ","<p style=""font-size: 48px;"">+</p>","","","","","null","allTrialResponses","1000","1","20","img_art/5.jpg","-20","Looks like a garbage bag with pink smoke coming out.","John,Devin,Bradley,Antonio,Patrick,Tristan","It has a sense of vague familiarity that i like.Like a stick starting a fire at a campsite.,30,120,20","A bit too messy in my eyes,-4,380,20","Looks like a tied up trash bag.,-10,300,20","Too much angular things happening, makes me think of stabbing something which makes me uncomfortable,-50,220,20","It looks random,-10,280,20","Nearly white background gives a lack of context. Questionable skills,-45,300,20","Bradley","Looks like a tied up trash bag.,-10,300,20","Patrick","It looks random,-10,280,20","Tristan","Nearly white background gives a lack of context. Questionable skills,-45,300,20","2"
"2895","","survey-text","188","998044","0.0-187.0-0.0","AWAHIWLMQ0HUQ","","","","{""Q0"":""we""}","","","","","","","","","","","","","","","","","","","","","","",""
"17526","","survey-text","189","1015576","0.0-188.0-0.0","AWAHIWLMQ0HUQ","","","","{""Q0"":""Looks like an overhead view of a huge crowd""}","","","","","","","","","","","","","","","","","","","","","","",""
"5636.299999952316","","image-slider-response","190","1021215","0.0-189.0","AWAHIWLMQ0HUQ","","","","","-17","","","","","","","","","","","","","","","","","","","","","",""
"null","","image-button-response","191","1026220","0.0-190.0","AWAHIWLMQ0HUQ","img_art/23.jpg","null","","","","","","","","","","","","","","","","","","","","","","","","",""
"2351","","image-button-response","192","1028575","0.0-191.0","AWAHIWLMQ0HUQ","img_art/23.jpg","4","","","","","","","","","","","","","","","","","","","","","","","","",""
"1330","","image-button-response","193","1029909","0.0-192.0-0.0","AWAHIWLMQ0HUQ","img_art/23.jpg","2","","","","","","","","","","","","","","","","","","","","","","","","",""
"2848","","image-button-response","194","1032762","0.0-193.0-0.0","AWAHIWLMQ0HUQ","img_art/23.jpg","0","","","","","","","","","","","","","","","","","","","","","","","","",""
"null","","html-keyboard-response","195","1033766","0.0-194.0","AWAHIWLMQ0HUQ","<p style=""font-size: 48px;"">+</p>","","","","","null","allTrialResponses","1000","1","21","img_art/23.jpg","-17","Looks like an overhead view of a huge crowd","Benjamin,Malik,Bradley,Alejandro,Patrick,Tristan","The background colors seem too dark and the middle images take away from it.,4,260,20","Very intense and unique,3,40,20","I like the contrast and the bright colors in this one.,6,300,20","I love the funky colors accompanied by perhaps dancing silhouettes. I love the white against the chaotic surroundings.,50,80,20","Beautiful color scheme,21,280,20","So exciting and full of the night.,20,300,20","Patrick","Beautiful color scheme,21,280,20","Bradley","I like the contrast and the bright colors in this one.,6,300,20","Benjamin","The background colors seem too dark and the middle images take away from it.,4,260,20","2"
"18488","","survey-text","196","1052264","0.0-195.0-0.0","AWAHIWLMQ0HUQ","","","","{""Q0"":""I like the flow of it but I can't make out what it is.""}","","","","","","","","","","","","","","","","","","","","","","",""
"3551.399999976158","","image-slider-response","197","1055819","0.0-196.0","AWAHIWLMQ0HUQ","","","","","6","","","","","","","","","","","","","","","","","","","","","",""
"null","","image-button-response","198","1060823","0.0-197.0","AWAHIWLMQ0HUQ","img_art/18.jpg","null","","","","","","","","","","","","","","","","","","","","","","","","",""
"713","","image-button-response","199","1061539","0.0-198.0","AWAHIWLMQ0HUQ","img_art/18.jpg","1","","","","","","","","","","","","","","","","","","","","","","","","",""
"1724","","image-button-response","200","1063269","0.0-199.0-0.0","AWAHIWLMQ0HUQ","img_art/18.jpg","5","","","","","","","","","","","","","","","","","","","","","","","","",""
"1626","","image-button-response","201","1064901","0.0-200.0-0.0","AWAHIWLMQ0HUQ","img_art/18.jpg","3","","","","","","","","","","","","","","","","","","","","","","","","",""
"null","","html-keyboard-response","202","1065904","0.0-201.0","AWAHIWLMQ0HUQ","<p style=""font-size: 48px;"">+</p>","","","","","null","allTrialResponses","1000","1","22","img_art/18.jpg","6","I like the flow of it but I can't make out what it is.","Benjamin,Luis,Bradley,Jason,Patrick,Caleb","ugly and lots of movement,-6,260,20","I love the battle vibe in this,50,400,20","This one is very dark and apocalyptic indeed!,-30,300,20","Umclear what is present in the picture,0,20,20","Too abstract and swirly,-21,280,20","Accents make this piece.,21,40,20","Luis","I love the battle vibe in this,50,400,20","Caleb","Accents make this piece.,21,40,20","Jason","Umclear what is present in the picture,0,20,20","2"
"11766","","survey-text","203","1077680","0.0-202.0-0.0","AWAHIWLMQ0HUQ","","","","{""Q0"":""I really like this peaceful nature picture.""}","","","","","","","","","","","","","","","","","","","","","","",""
"4152.5","","image-slider-response","204","1081835","0.0-203.0","AWAHIWLMQ0HUQ","","","","","50","","","","","","","","","","","","","","","","","","","","","",""
"null","","image-button-response","205","1086840","0.0-204.0","AWAHIWLMQ0HUQ","img_art/24.jpg","null","","","","","","","","","","","","","","","","","","","","","","","","",""
"1477","","image-button-response","206","1088320","0.0-205.0","AWAHIWLMQ0HUQ","img_art/24.jpg","0","","","","","","","","","","","","","","","","","","","","","","","","",""
"1304","","image-button-response","207","1089628","0.0-206.0-0.0","AWAHIWLMQ0HUQ","img_art/24.jpg","5","","","","","","","","","","","","","","","","","","","","","","","","",""
"1020","","image-button-response","208","1090653","0.0-207.0-0.0","AWAHIWLMQ0HUQ","img_art/24.jpg","0","","","","","","","","","","","","","","","","","","","","","","","","",""
"602","","image-button-response","209","1094313","0.0-207.1-0.1","AWAHIWLMQ0HUQ","img_art/24.jpg","1","","","","","","","","","","","","","","","","","","","","","","","","",""
"null","","html-keyboard-response","210","1095321","0.0-208.0","AWAHIWLMQ0HUQ","<p style=""font-size: 48px;"">+</p>","","","","","null","allTrialResponses","1000","1","23","img_art/24.jpg","50","I really like this peaceful nature picture.","Kevin,Luis,Cody,Jason,Daniel,Caleb","What a nice refreshing waterfall.,39,320,20","Love the natural vibe,50,400,20","Beautiful, good colors, love water,50,180,20","I like the bright colors,16,20,20","Classic palette lacks real world 3d construction,19,320,20","This is gorgeous. Strong, saturated colors and clear meaning.,50,40,20","Kevin","What a nice refreshing waterfall.,39,320,20","Caleb","This is gorgeous. Strong, saturated colors and clear meaning.,50,40,20","Luis","Love the natural vibe,50,400,20","4"
"15410","","survey-text","211","1110744","0.0-209.0-0.0","AWAHIWLMQ0HUQ","","","","{""Q0"":""This seems like a nice view of the sky during a storm.""}","","","","","","","","","","","","","","","","","","","","","","",""
"3871.399999976158","","image-slider-response","212","1114619","0.0-210.0","AWAHIWLMQ0HUQ","","","","","36","","","","","","","","","","","","","","","","","","","","","",""
"null","","image-button-response","213","1119626","0.0-211.0","AWAHIWLMQ0HUQ","img_art/21.jpg","null","","","","","","","","","","","","","","","","","","","","","","","","",""
"1394","","image-button-response","214","1121024","0.0-212.0","AWAHIWLMQ0HUQ","img_art/21.jpg","1","","","","","","","","","","","","","","","","","","","","","","","","",""
"978","","image-button-response","215","1122005","0.0-213.0-0.0","AWAHIWLMQ0HUQ","img_art/21.jpg","2","","","","","","","","","","","","","","","","","","","","","","","","",""
"3208","","image-button-response","216","1125220","0.0-214.0-0.0","AWAHIWLMQ0HUQ","img_art/21.jpg","3","","","","","","","","","","","","","","","","","","","","","","","","",""
"null","","html-keyboard-response","217","1126723","0.0-215.0","AWAHIWLMQ0HUQ","<p style=""font-size: 48px;"">+</p>","","","","","null","allTrialResponses","1500","1","24","img_art/21.jpg","36","This seems like a nice view of the sky during a storm.","Kevin,Luis,Richard,Jonathan,Taylor,Caleb","Another ship on fire.,-10,320,20","I like the representation of love and hate in this,43,400,20","setting sun sky? nice colors and blending,14,340,20","Makes me think of a natural disaster but I love how it looks. Makes you think,30,140,20","Remove the rocks(?) on the lower right.,5,200,20","Almost appears like the background of an old renaissance painting.,40,40,20","Luis","I like the representation of love and hate in this,43,400,20","Richard","setting sun sky? nice colors and blending,14,340,20","Jonathan","Makes me think of a natural disaster but I love how it looks. Makes you think,30,140,20","4"
"13377","","survey-text","218","1140111","0.0-216.0-0.0","AWAHIWLMQ0HUQ","","","","{""Q0"":""This is very chaotic but flows well at the same time.""}","","","","","","","","","","","","","","","","","","","","","","",""
"3175.1999999284744","","image-slider-response","219","1143289","0.0-217.0","AWAHIWLMQ0HUQ","","","","","2","","","","","","","","","","","","","","","","","","","","","",""
"null","","image-button-response","220","1148298","0.0-218.0","AWAHIWLMQ0HUQ","img_art/8.jpg","null","","","","","","","","","","","","","","","","","","","","","","","","",""
"674","","image-button-response","221","1148975","0.0-219.0","AWAHIWLMQ0HUQ","img_art/8.jpg","0","","","","","","","","","","","","","","","","","","","","","","","","",""
"447","","image-button-response","222","1149425","0.0-220.0-0.0","AWAHIWLMQ0HUQ","img_art/8.jpg","1","","","","","","","","","","","","","","","","","","","","","","","","",""
"596","","image-button-response","223","1150026","0.0-221.0-0.0","AWAHIWLMQ0HUQ","img_art/8.jpg","3","","","","","","","","","","","","","","","","","","","","","","","","",""
"null","","html-keyboard-response","224","1150530","0.0-222.0","AWAHIWLMQ0HUQ","<p style=""font-size: 48px;"">+</p>","","","","","null","allTrialResponses","500","1","25","img_art/8.jpg","2","This is very chaotic but flows well at the same time.","Thomas,Luis,Richard,Jonathan,Adrian,Steven","Gorgeous! I love the colors and the details.,50,220,20","I love the expressiveness of this,50,400,20","lots going on with great use of lots of color and geometry,24,340,20","It's very grand and ominous but I like it,25,140,20","Pleasant colors, lots of interest. Not sure what's going on but I like it.,20,60,20","very nice, i love what's going on here,21,160,20","Thomas","Gorgeous! I love the colors and the details.,50,220,20","Luis","I love the expressiveness of this,50,400,20","Jonathan","It's very grand and ominous but I like it,25,140,20","4"
"4421","","survey-text","225","1154970","0.0-223.0-0.0","AWAHIWLMQ0HUQ","","","","{""Q0"":""table""}","","","","","","","","","","","","","","","","","","","","","","",""
"16990","","survey-text","226","1171962","0.0-224.0-0.0","AWAHIWLMQ0HUQ","","","","{""Q0"":""This seems very dark and random.""}","","","","","","","","","","","","","","","","","","","","","","",""
"3567.399999976158","","image-slider-response","227","1175533","0.0-225.0","AWAHIWLMQ0HUQ","","","","","-15","","","","","","","","","","","","","","","","","","","","","",""
"null","","image-button-response","228","1180539","0.0-226.0","AWAHIWLMQ0HUQ","img_art/29.jpg","null","","","","","","","","","","","","","","","","","","","","","","","","",""
"415","","image-button-response","229","1180956","0.0-227.0","AWAHIWLMQ0HUQ","img_art/29.jpg","0","","","","","","","","","","","","","","","","","","","","","","","","",""
"1268","","image-button-response","230","1182227","0.0-228.0-0.0","AWAHIWLMQ0HUQ","img_art/29.jpg","4","","","","","","","","","","","","","","","","","","","","","","","","",""
"3958","","image-button-response","231","1186191","0.0-229.0-0.0","AWAHIWLMQ0HUQ","img_art/29.jpg","5","","","","","","","","","","","","","","","","","","","","","","","","",""
"null","","html-keyboard-response","232","1187197","0.0-230.0","AWAHIWLMQ0HUQ","<p style=""font-size: 48px;"">+</p>","","","","","null","allTrialResponses","1000","1","26","img_art/29.jpg","-15","This seems very dark and random.","Thomas,Luis,James,Jonathan,Joseph,Paul","Looks messy, but not in appealing way,-20,220,20","I love the representation of a mess,50,400,20","It has a red X on there, and x's mean bad in my perspective,-29,380,20","This one feels scary in a good way,30,140,20","It looks like graffiti in a subway tunnel- destruction.,-20,220,20","There's too much black and it looks sloppy,-35,300,20","Thomas","Looks messy, but not in appealing way,-20,220,20","Joseph","It looks like graffiti in a subway tunnel- destruction.,-20,220,20","Paul","There's too much black and it looks sloppy,-35,300,20","4"
"14532","","survey-text","233","1201741","0.0-231.0-0.0","AWAHIWLMQ0HUQ","","","","{""Q0"":""This looks like smeared paint on a glass window.""}","","","","","","","","","","","","","","","","","","","","","","",""
"5672.800000071526","","image-slider-response","234","1207418","0.0-232.0","AWAHIWLMQ0HUQ","","","","","-10","","","","","","","","","","","","","","","","","","","","","",""
"null","","image-button-response","235","1212423","0.0-233.0","AWAHIWLMQ0HUQ","img_art/30.jpg","null","","","","","","","","","","","","","","","","","","","","","","","","",""
"467","","image-button-response","236","1212892","0.0-234.0","AWAHIWLMQ0HUQ","img_art/30.jpg","0","","","","","","","","","","","","","","","","","","","","","","","","",""
"2077","","image-button-response","237","1214973","0.0-235.0-0.0","AWAHIWLMQ0HUQ","img_art/30.jpg","1","","","","","","","","","","","","","","","","","","","","","","","","",""
"3762","","image-button-response","238","1218739","0.0-236.0-0.0","AWAHIWLMQ0HUQ","img_art/30.jpg","4","","","","","","","","","","","","","","","","","","","","","","","","",""
"null","","html-keyboard-response","239","1220246","0.0-237.0","AWAHIWLMQ0HUQ","<p style=""font-size: 48px;"">+</p>","","","","","null","allTrialResponses","1500","1","27","img_art/30.jpg","-10","This looks like smeared paint on a glass window.","Thomas,Scott,Anthony,Justin,Joseph,Paul","I like the colors,18,220,20","nothing special about it,1,20,20","The color scheme used in this piece is very ugly.,-50,200,20","The colors and the brushstrokes are interesting enough.,17,280,20","It's soothing- the page is full, but there aren't too many things happening.,23,220,20","It looked like a random scribble but I can see a person's face in it now and I think it's clever,13,300,20","Thomas","I like the colors,18,220,20","Scott","nothing special about it,1,20,20","Joseph","It's soothing- the page is full, but there aren't too many things happening.,23,220,20","4"
"16170","","survey-text","240","1236425","0.0-238.0-0.0","AWAHIWLMQ0HUQ","","","","{""Q0"":""This seems like a painting of a tree with blood around it.""}","","","","","","","","","","","","","","","","","","","","","","",""
"3628.1999999284744","","image-slider-response","241","1240057","0.0-239.0","AWAHIWLMQ0HUQ","","","","","-25","","","","","","","","","","","","","","","","","","","","","",""
"null","","image-button-response","242","1245063","0.0-240.0","AWAHIWLMQ0HUQ","img_art/14.jpg","null","","","","","","","","","","","","","","","","","","","","","","","","",""
"4895","","image-button-response","243","1249962","0.0-241.0","AWAHIWLMQ0HUQ","img_art/14.jpg","3","","","","","","","","","","","","","","","","","","","","","","","","",""
"900","","image-button-response","244","1250869","0.0-242.0-0.0","AWAHIWLMQ0HUQ","img_art/14.jpg","1","","","","","","","","","","","","","","","","","","","","","","","","",""
"394","","image-button-response","245","1251268","0.0-243.0-0.0","AWAHIWLMQ0HUQ","img_art/14.jpg","0","","","","","","","","","","","","","","","","","","","","","","","","",""
"null","","html-keyboard-response","246","1252274","0.0-244.0","AWAHIWLMQ0HUQ","<p style=""font-size: 48px;"">+</p>","","","","","null","allTrialResponses","1000","1","28","img_art/14.jpg","-25","This seems like a painting of a tree with blood around it.","Thomas,Scott,Charles,Cameron,Joseph,William","I like the colors in the background, but not the bottom/center. It almost looks sloppy.,-20,220,20","its okay nothing special,11,20,20","In some ways it looks natural, but I'm just not feeling it,0,100,20","cotton candy skies. pretty.,35,60,20","I like that it looks like plants on a table, which reminds me of life.,4,220,20","calming to look at,37,380,20","Cameron","cotton candy skies. pretty.,35,60,20","Scott","its okay nothing special,11,20,20","Thomas","I like the colors in the background, but not the bottom/center. It almost looks sloppy.,-20,220,20","4"
"9346","","survey-text","247","1261632","0.0-245.0-0.0","AWAHIWLMQ0HUQ","","","","{""Q0"":""A bird standing on the desert sand.""}","","","","","","","","","","","","","","","","","","","","","","",""
"7322.299999952316","","image-slider-response","248","1268958","0.0-246.0","AWAHIWLMQ0HUQ","","","","","21","","","","","","","","","","","","","","","","","","","","","",""
"3978","","image-button-response","249","1273966","0.0-247.0","AWAHIWLMQ0HUQ","img_art/6.jpg","1","","","","","","","","","","","","","","","","","","","","","","","","",""
"1652","","image-button-response","250","1275622","0.0-248.0","AWAHIWLMQ0HUQ","img_art/6.jpg","1","","","","","","","","","","","","","","","","","","","","","","","","",""
"981","","image-button-response","251","1276609","0.0-249.0-0.0","AWAHIWLMQ0HUQ","img_art/6.jpg","4","","","","","","","","","","","","","","","","","","","","","","","","",""
"1790","","image-button-response","252","1278404","0.0-250.0-0.0","AWAHIWLMQ0HUQ","img_art/6.jpg","3","","","","","","","","","","","","","","","","","","","","","","","","",""
"null","","html-keyboard-response","253","1279907","0.0-251.0","AWAHIWLMQ0HUQ","<p style=""font-size: 48px;"">+</p>","","","","","null","allTrialResponses","1500","1","29","img_art/6.jpg","21","A bird standing on the desert sand.","Thomas,Scott,Jacob,Cameron,Jeffrey,Timothy","I like the color and the gradient,10,220,20","reminds me of a bird,31,20,20","Is this a leaf?,4,340,20","Kind of neat, but then that's a weird looking bird. too weird.,0,60,20","positive because of bright colours and a bird,20,40,20","I dont feel much of a responce or connection to this one,0,240,20","Scott","reminds me of a bird,31,20,20","Jeffrey","positive because of bright colours and a bird,20,40,20","Cameron","Kind of neat, but then that's a weird looking bird. too weird.,0,60,20","4"
"10966","","survey-text","254","1290884","0.0-252.0-0.0","AWAHIWLMQ0HUQ","","","","{""Q0"":""An abstract tree and fence with nice colors.""}","","","","","","","","","","","","","","","","","","","","","","",""
"4720.200000047684","","image-slider-response","255","1295607","0.0-253.0","AWAHIWLMQ0HUQ","","","","","28","","","","","","","","","","","","","","","","","","","","","",""
"null","","image-button-response","256","1300612","0.0-254.0","AWAHIWLMQ0HUQ","img_art/17.jpg","null","","","","","","","","","","","","","","","","","","","","","","","","",""
"1692","","image-button-response","257","1302308","0.0-255.0","AWAHIWLMQ0HUQ","img_art/17.jpg","0","","","","","","","","","","","","","","","","","","","","","","","","",""
"1223","","image-button-response","258","1303535","0.0-256.0-0.0","AWAHIWLMQ0HUQ","img_art/17.jpg","3","","","","","","","","","","","","","","","","","","","","","","","","",""
"2420","","image-button-response","259","1305960","0.0-257.0-0.0","AWAHIWLMQ0HUQ","img_art/17.jpg","4","","","","","","","","","","","","","","","","","","","","","","","","",""
"null","","html-keyboard-response","260","1306964","0.0-258.0","AWAHIWLMQ0HUQ","<p style=""font-size: 48px;"">+</p>","","","","","null","allTrialResponses","1000","1","30","img_art/17.jpg","28","An abstract tree and fence with nice colors.","Robert,Scott,Grant,Cameron,Jeffrey,Ryan","The wispy trees caught my eye.,42,360,20","pretty bland in coloring,1,20,20","This makes me feel trapped.,5,200,20","doorways and trees are pleasant,30,60,20","Makes me warm and cozy just by looking at it,29,40,20","Feels supernatural and scary,-16,380,20","Robert","The wispy trees caught my eye.,42,360,20","Cameron","doorways and trees are pleasant,30,60,20","Jeffrey","Makes me warm and cozy just by looking at it,29,40,20","4"
"2307","","image-button-response_instructions","261","1309281","0.0-259.0","AWAHIWLMQ0HUQ","","0","instructions","","","","","","","","","","","","","","","","","","","","","","","",""
"1270","","image-button-response","262","1310563","0.0-260.0","AWAHIWLMQ0HUQ","","0","","","","","","","","","","","","","","","","","","","","","","","","",""
