"rt","url","trial_type","trial_index","time_elapsed","internal_node_id","participant_id","stimulus","button_pressed","Name","responses","response","key_press","variableName","fixationTime","condition","trial","photo","subjectRating","subjectResponse","agentsNames","agent_1_Response","agent_2_Response","agent_3_Response","agent_4_Response","agent_5_Response","agent_6_Response","kept_1_name","kept_1_response","kept_2_name","kept_2_response","kept_3_name","kept_3_response","errorCounter"
"12754","external_page_harvard.html","external-html","0","12820","0.0-0.0","AWTBENF2BL2IQ","","","","","","","","","","","","","","","","","","","","","","","","","","",""
"2440","","image-button-response","1","15264","0.0-1.0","AWTBENF2BL2IQ","","0","","","","","","","","","","","","","","","","","","","","","","","","",""
"1740","","image-button-response","2","17012","0.0-2.0-0.0","AWTBENF2BL2IQ","","1","phone","","","","","","","","","","","","","","","","","","","","","","","",""
"10131","","survey-text","3","27144","0.0-3.0-0.0","AWTBENF2BL2IQ","","","","{""Q0"":""AWTBENF2BL2IQ""}","","","","","","","","","","","","","","","","","","","","","","",""
"42331","","image-button-response_instructions","4","69478","0.0-4.0","AWTBENF2BL2IQ","","0","instructions","","","","","","","","","","","","","","","","","","","","","","","",""
"7388","","image-button-response_instructions","5","76868","0.0-5.0","AWTBENF2BL2IQ","img_art/ins/popularity/ins1.png","0","instructions","","","","","","","","","","","","","","","","","","","","","","","",""
"4767","","image-button-response_instructions","6","81635","0.0-6.0","AWTBENF2BL2IQ","img_art/ins/popularity/ins2.png","0","instructions","","","","","","","","","","","","","","","","","","","","","","","",""
"4868","","image-button-response_instructions","7","86505","0.0-7.0","AWTBENF2BL2IQ","img_art/ins/popularity/ins2Extreme.png","0","instructions","","","","","","","","","","","","","","","","","","","","","","","",""
"9468","","image-button-response_instructions","8","95975","0.0-8.0","AWTBENF2BL2IQ","img_art/ins/popularity/ins3KEEPpop.PNG","0","instructions","","","","","","","","","","","","","","","","","","","","","","","",""
"6102","","image-button-response_instructions","9","102078","0.0-9.0","AWTBENF2BL2IQ","img_art/ins/popularity/ins3ANamepop.PNG","0","instructions","","","","","","","","","","","","","","","","","","","","","","","",""
"3727","","image-button-response_instructions","10","105806","0.0-10.0","AWTBENF2BL2IQ","img_art/ins/popularity/ins3ARatingpop.png","0","instructions","","","","","","","","","","","","","","","","","","","","","","","",""
"2243","","image-button-response_instructions","11","108050","0.0-11.0","AWTBENF2BL2IQ","img_art/ins/popularity/ins3ATextpop.png","0","instructions","","","","","","","","","","","","","","","","","","","","","","","",""
"5263","","image-button-response_instructions","12","113314","0.0-12.0","AWTBENF2BL2IQ","img_art/ins/popularity/ins3ALikespop.png","0","instructions","","","","","","","","","","","","","","","","","","","","","","","",""
"12650","","image-button-response_instructions","13","125966","0.0-13.0","AWTBENF2BL2IQ","img_art/ins/popularity/ins3KEEPpop.PNG","0","instructions","","","","","","","","","","","","","","","","","","","","","","","",""
"7172","","image-button-response_instructions","14","133140","0.0-14.0","AWTBENF2BL2IQ","img_art/ins/popularity/ins3_5RED.png","0","instructions","","","","","","","","","","","","","","","","","","","","","","","",""
"3355","","image-button-response_instructions","15","136495","0.0-15.0","AWTBENF2BL2IQ","img_art/ins/popularity/ins3KEEPpop.PNG","0","instructions","","","","","","","","","","","","","","","","","","","","","","","",""
"11752","","image-button-response_instructions","16","148249","0.0-16.0","AWTBENF2BL2IQ","img_art/ins/popularity/ins4KEEPpop.PNG","0","instructions","","","","","","","","","","","","","","","","","","","","","","","",""
"4030","","image-button-response_instructions","17","152280","0.0-17.0","AWTBENF2BL2IQ","img_art/ins/popularity/ins5KEEPpop.PNG","0","instructions","","","","","","","","","","","","","","","","","","","","","","","",""
"1541","","image-button-response_instructions","18","153822","0.0-18.0","AWTBENF2BL2IQ","","0","instructions","","","","","","","","","","","","","","","","","","","","","","","",""
"4582","","survey-text","19","158439","0.0-19.0-0.0","AWTBENF2BL2IQ","","","","{""Q0"":""but""}","","","","","","","","","","","","","","","","","","","","","","",""
"15446","","survey-text","20","173886","0.0-20.0-0.0","AWTBENF2BL2IQ","","","","{""Q0"":""It looks like anybody could create this.""}","","","","","","","","","","","","","","","","","","","","","","",""
"3439","","image-slider-response","21","177328","0.0-21.0","AWTBENF2BL2IQ","","","","","-22","","","","","","","","","","","","","","","","","","","","","",""
"null","","image-button-response","22","182332","0.0-22.0","AWTBENF2BL2IQ","img_art/ins/1.jpg","null","","","","","","","","","","","","","","","","","","","","","","","","",""
"5380","","image-button-response","23","187714","0.0-23.0","AWTBENF2BL2IQ","img_art/ins/1.jpg","4","","","","","","","","","","","","","","","","","","","","","","","","",""
"2269","","image-button-response","24","189986","0.0-24.0-0.0","AWTBENF2BL2IQ","img_art/ins/1.jpg","0","","","","","","","","","","","","","","","","","","","","","","","","",""
"3365","","image-button-response","25","193353","0.0-25.0-0.0","AWTBENF2BL2IQ","img_art/ins/1.jpg","2","","","","","","","","","","","","","","","","","","","","","","","","",""
"null","","html-keyboard-response","26","194857","0.0-26.0","AWTBENF2BL2IQ","<p style=""font-size: 48px;"">+</p>","","","","","null","allTrialResponses","1500","1","-2","img_art/ins/1.jpg","-22","It looks like anybody could create this.","Adam,Alex,Ben,Carl,Daniel,Jack","Seems like doodles,-20,20,20","very creative work.,36,40,20","This color reminds me of poo,-46,60,20","very calming artwork,42,80,20","It looks like a murder scene.,-48,100,20","I like the sophisticated brushwork,40,120,20","Daniel","It looks like a murder scene.,-48,100,20","Adam","Seems like doodles,-20,20,20","Ben","This color reminds me of poo,-46,60,20","0"
"8680","","survey-text","27","203543","0.0-27.0-0.0","AWTBENF2BL2IQ","","","","{""Q0"":""It looks like something bad happened.""}","","","","","","","","","","","","","","","","","","","","","","",""
"3327","","image-slider-response","28","206873","0.0-28.0","AWTBENF2BL2IQ","","","","","21","","","","","","","","","","","","","","","","","","","","","",""
"null","","image-button-response","29","211875","0.0-29.0","AWTBENF2BL2IQ","img_art/ins/2.jpg","null","","","","","","","","","","","","","","","","","","","","","","","","",""
"6962","","image-button-response","30","218839","0.0-30.0","AWTBENF2BL2IQ","img_art/ins/2.jpg","0","","","","","","","","","","","","","","","","","","","","","","","","",""
"2726","","image-button-response","31","221566","0.0-31.0-0.0","AWTBENF2BL2IQ","img_art/ins/2.jpg","1","","","","","","","","","","","","","","","","","","","","","","","","",""
"1256","","image-button-response","32","222824","0.0-32.0-0.0","AWTBENF2BL2IQ","img_art/ins/2.jpg","0","","","","","","","","","","","","","","","","","","","","","","","","",""
"1598","","image-button-response","33","229038","0.0-32.1-0.1","AWTBENF2BL2IQ","img_art/ins/2.jpg","5","","","","","","","","","","","","","","","","","","","","","","","","",""
"null","","html-keyboard-response","34","230041","0.0-33.0","AWTBENF2BL2IQ","<p style=""font-size: 48px;"">+</p>","","","","","null","allTrialResponses","1000","1","-1","img_art/ins/2.jpg","21","It looks like something bad happened.","Adam,John,Ben,James,Daniel,Kyle","too much color,-18,20,20","love the texture of paint,48,160,20","meaningless painting,-45,60,20","looks too angry,-50,140,20","One of my pet peevs,-48,100,20","Idk, it is just annoying,-32,180,20","Adam","too much color,-18,20,20","John","love the texture of paint,48,160,20","Kyle","Idk, it is just annoying,-32,180,20","2"
"6581","","survey-text","35","236628","0.0-34.0-0.0","AWTBENF2BL2IQ","","","","{""Q0"":""It looks cold.""}","","","","","","","","","","","","","","","","","","","","","","",""
"2606","","image-slider-response","36","239236","0.0-35.0","AWTBENF2BL2IQ","","","","","-7","","","","","","","","","","","","","","","","","","","","","",""
"4778","","image-button-response","37","244238","0.0-36.0","AWTBENF2BL2IQ","img_art/ins/3.jpg","2","","","","","","","","","","","","","","","","","","","","","","","","",""
"3098","","image-button-response","38","247338","0.0-37.0","AWTBENF2BL2IQ","img_art/ins/3.jpg","0","","","","","","","","","","","","","","","","","","","","","","","","",""
"4264","","image-button-response","39","251604","0.0-38.0-0.0","AWTBENF2BL2IQ","img_art/ins/3.jpg","5","","","","","","","","","","","","","","","","","","","","","","","","",""
"2018","","image-button-response","40","253623","0.0-39.0-0.0","AWTBENF2BL2IQ","img_art/ins/3.jpg","2","","","","","","","","","","","","","","","","","","","","","","","","",""
"null","","html-keyboard-response","41","254626","0.0-40.0","AWTBENF2BL2IQ","<p style=""font-size: 48px;"">+</p>","","","","","null","allTrialResponses","1000","1","0","img_art/ins/3.jpg","-7","It looks cold.","Adam,John,Sam,Mike,Ron,Kyle","My daily routine, it's depressing,-20,20,20","I like the overlapping of brushes,41,160,20","I can feel a rainy day from this painting,18,240,20","enjoy the different shades of blue,22,200,20","It looks depressing,-26,220,20","It looks like a playground for bats,-36,180,20","Adam","My daily routine, it's depressing,-20,20,20","Kyle","It looks like a playground for bats,-36,180,20","Sam","I can feel a rainy day from this painting,18,240,20","2"
"5520","","image-button-response_instructions","42","260151","0.0-41.0","AWTBENF2BL2IQ","","0","instructions","","","","","","","","","","","","","","","","","","","","","","","",""
"16351","","survey-likert","43","276505","0.0-42.0-0.0","AWTBENF2BL2IQ","","","","{""Q0"":"""",""Q1"":0,""Q2"":1}","","","","","","","","","","","","","","","","","","","","","","",""
"4815","","survey-text","44","281327","0.0-43.0-0.0","AWTBENF2BL2IQ","","","","{""Q0"":""rock""}","","","","","","","","","","","","","","","","","","","","","","",""
"8728","","survey-text","45","290057","0.0-44.0-0.0","AWTBENF2BL2IQ","","","","{""Q0"":""There is too much going on.""}","","","","","","","","","","","","","","","","","","","","","","",""
"3190","","image-slider-response","46","293248","0.0-45.0","AWTBENF2BL2IQ","","","","","-19","","","","","","","","","","","","","","","","","","","","","",""
"null","","image-button-response","47","298283","0.0-46.0","AWTBENF2BL2IQ","img_art/27.jpg","null","","","","","","","","","","","","","","","","","","","","","","","","",""
"1424","","image-button-response","48","299708","0.0-47.0","AWTBENF2BL2IQ","img_art/27.jpg","1","","","","","","","","","","","","","","","","","","","","","","","","",""
"10361","","image-button-response","49","310071","0.0-48.0-0.0","AWTBENF2BL2IQ","img_art/27.jpg","5","","","","","","","","","","","","","","","","","","","","","","","","",""
"3484","","image-button-response","50","313557","0.0-49.0-0.0","AWTBENF2BL2IQ","img_art/27.jpg","3","","","","","","","","","","","","","","","","","","","","","","","","",""
"null","","html-keyboard-response","51","315059","0.0-50.0","AWTBENF2BL2IQ","<p style=""font-size: 48px;"">+</p>","","","","","null","allTrialResponses","1500","1","1","img_art/27.jpg","-19","There is too much going on.","Nicholas,John,Isaiah,Elijah,Spencer,Jeffrey","I like all it has going but i wouldnt put it in my house unless my child did it,25,240,20","Looks as if a toddler painted it,-20,120,20","I feel peaceful and a little nervous at the same time.,11,300,20","Not too impressed with the work,6,80,20","An attractive assortment of squiggles and colors,22,120,20","I like the pictures but it is a lot of going on,10,40,20","John","Looks as if a toddler painted it,-20,120,20","Jeffrey","I like the pictures but it is a lot of going on,10,40,20","Elijah","Not too impressed with the work,6,80,20","2"
"10261","","survey-text","52","325327","0.0-51.0-0.0","AWTBENF2BL2IQ","","","","{""Q0"":""It looks like vomit.""}","","","","","","","","","","","","","","","","","","","","","","",""
"3079.000000000058","","image-slider-response","53","328406","0.0-52.0","AWTBENF2BL2IQ","","","","","-34","","","","","","","","","","","","","","","","","","","","","",""
"2054","","image-button-response","54","333409","0.0-53.0","AWTBENF2BL2IQ","img_art/2.jpg","0","","","","","","","","","","","","","","","","","","","","","","","","",""
"3491","","image-button-response","55","336902","0.0-54.0","AWTBENF2BL2IQ","img_art/2.jpg","2","","","","","","","","","","","","","","","","","","","","","","","","",""
"6235","","image-button-response","56","343138","0.0-55.0-0.0","AWTBENF2BL2IQ","img_art/2.jpg","3","","","","","","","","","","","","","","","","","","","","","","","","",""
"1168","","image-button-response","57","344308","0.0-56.0-0.0","AWTBENF2BL2IQ","img_art/2.jpg","0","","","","","","","","","","","","","","","","","","","","","","","","",""
"null","","html-keyboard-response","58","345311","0.0-57.0","AWTBENF2BL2IQ","<p style=""font-size: 48px;"">+</p>","","","","","null","allTrialResponses","1000","1","2","img_art/2.jpg","-34","It looks like vomit.","Adrian,John,Kenneth,Elijah,Charles,Jeffrey","Not a fan of the colors or the style.,-31,60,20","Its meh. Doesnt illicit any strong feelings in me,1,120,20","I cant tell whats happening here and that shade of green is just not my thing.,-17,300,20","It's just a splash of paint on a canvas,-31,80,20","I like the green,13,100,20","positive, seems like someone really happy and colourful is looking at me,22,40,20","Kenneth","I cant tell whats happening here and that shade of green is just not my thing.,-17,300,20","Elijah","It's just a splash of paint on a canvas,-31,80,20","Adrian","Not a fan of the colors or the style.,-31,60,20","2"
"10026","","survey-text","59","355344","0.0-58.0-0.0","AWTBENF2BL2IQ","","","","{""Q0"":""It looks like a city, kind of interesting.""}","","","","","","","","","","","","","","","","","","","","","","",""
"2642","","image-slider-response","60","357988","0.0-59.0","AWTBENF2BL2IQ","","","","","15","","","","","","","","","","","","","","","","","","","","","",""
"null","","image-button-response","61","362991","0.0-60.0","AWTBENF2BL2IQ","img_art/19.jpg","null","","","","","","","","","","","","","","","","","","","","","","","","",""
"4727","","image-button-response","62","367719","0.0-61.0","AWTBENF2BL2IQ","img_art/19.jpg","4","","","","","","","","","","","","","","","","","","","","","","","","",""
"8220","","image-button-response","63","375941","0.0-62.0-0.0","AWTBENF2BL2IQ","img_art/19.jpg","0","","","","","","","","","","","","","","","","","","","","","","","","",""
"2282","","image-button-response","64","378225","0.0-63.0-0.0","AWTBENF2BL2IQ","img_art/19.jpg","0","","","","","","","","","","","","","","","","","","","","","","","","",""
"565","","image-button-response","65","382035","0.0-63.1-0.1","AWTBENF2BL2IQ","img_art/19.jpg","3","","","","","","","","","","","","","","","","","","","","","","","","",""
"null","","html-keyboard-response","66","383537","0.0-64.0","AWTBENF2BL2IQ","<p style=""font-size: 48px;"">+</p>","","","","","null","allTrialResponses","1500","1","3","img_art/19.jpg","15","It looks like a city, kind of interesting.","Adrian,Jack,Kenneth,Elijah,Noah,Caleb","Pleasant colors with just enough detail to be recognizable. I can see a scene in it that tells a story.,7,60,20","love the muted colors and added sketchy lines. calming without being boring.,50,320,20","TOo much brown.,-24,300,20","The details are amazing,36,80,20","the way the landscape is portrayed captivates me - I enjoy studying the structure,32,260,20","Watercolor abstract? Strange.,1,40,20","Noah","the way the landscape is portrayed captivates me - I enjoy studying the structure,32,260,20","Adrian","Pleasant colors with just enough detail to be recognizable. I can see a scene in it that tells a story.,7,60,20","Elijah","The details are amazing,36,80,20","4"
"14812","","survey-text","67","398357","0.0-65.0-0.0","AWTBENF2BL2IQ","","","","{""Q0"":""This is interesting, I like the small areas of color.""}","","","","","","","","","","","","","","","","","","","","","","",""
"2528","","image-slider-response","68","400886","0.0-66.0","AWTBENF2BL2IQ","","","","","30","","","","","","","","","","","","","","","","","","","","","",""
"null","","image-button-response","69","405891","0.0-67.0","AWTBENF2BL2IQ","img_art/11.jpg","null","","","","","","","","","","","","","","","","","","","","","","","","",""
"4069","","image-button-response","70","409962","0.0-68.0","AWTBENF2BL2IQ","img_art/11.jpg","4","","","","","","","","","","","","","","","","","","","","","","","","",""
"3022","","image-button-response","71","412986","0.0-69.0-0.0","AWTBENF2BL2IQ","img_art/11.jpg","5","","","","","","","","","","","","","","","","","","","","","","","","",""
"3808","","image-button-response","72","416796","0.0-70.0-0.0","AWTBENF2BL2IQ","img_art/11.jpg","2","","","","","","","","","","","","","","","","","","","","","","","","",""
"null","","html-keyboard-response","73","418298","0.0-71.0","AWTBENF2BL2IQ","<p style=""font-size: 48px;"">+</p>","","","","","null","allTrialResponses","1500","1","4","img_art/11.jpg","30","This is interesting, I like the small areas of color.","Adrian,Devon,Robert,Elijah,Noah,Juan","Not a fan of the colors but it looks interesting.,-31,60,20","a beautiful piece of art,33,400,20","Rainy dreary day in a town.,7,360,20","Very cool, makes me feel good,39,80,20","I enjoy the kandinsky-like general vibe, but the grey brings me down a bit,27,260,20","It makes me think of a rainy day and I like the colors. Also like the wavy lines.,22,260,20","Noah","I enjoy the kandinsky-like general vibe, but the grey brings me down a bit,27,260,20","Juan","It makes me think of a rainy day and I like the colors. Also like the wavy lines.,22,260,20","Robert","Rainy dreary day in a town.,7,360,20","4"
"20445","","survey-text","74","438749","0.0-72.0-0.0","AWTBENF2BL2IQ","","","","{""Q0"":""I don't like it, looks boring.""}","","","","","","","","","","","","","","","","","","","","","","",""
"3134","","image-slider-response","75","441885","0.0-73.0","AWTBENF2BL2IQ","","","","","-37","","","","","","","","","","","","","","","","","","","","","",""
"null","","image-button-response","76","446888","0.0-74.0","AWTBENF2BL2IQ","img_art/15.jpg","null","","","","","","","","","","","","","","","","","","","","","","","","",""
"727","","image-button-response","77","447617","0.0-75.0","AWTBENF2BL2IQ","img_art/15.jpg","0","","","","","","","","","","","","","","","","","","","","","","","","",""
"6428","","image-button-response","78","454046","0.0-76.0-0.0","AWTBENF2BL2IQ","img_art/15.jpg","5","","","","","","","","","","","","","","","","","","","","","","","","",""
"2702","","image-button-response","79","456750","0.0-77.0-0.0","AWTBENF2BL2IQ","img_art/15.jpg","1","","","","","","","","","","","","","","","","","","","","","","","","",""
"null","","html-keyboard-response","80","458252","0.0-78.0","AWTBENF2BL2IQ","<p style=""font-size: 48px;"">+</p>","","","","","null","allTrialResponses","1500","1","5","img_art/15.jpg","-37","I don't like it, looks boring.","Travis,Jared,Robert,Austin,Noah,Juan","Hate it...black dots.,-47,260,20","i cant find somthing ilike about it,-31,400,20","This piece is too dark,-42,360,20","Perfect Abstract painting,50,240,20","i enjoy its apaprent simplicity (of colour and shape),32,260,20","I don't even know what's going on here. Again, this is too abstract.,-21,260,20","Travis","Hate it...black dots.,-47,260,20","Juan","I don't even know what's going on here. Again, this is too abstract.,-21,260,20","Jared","i cant find somthing ilike about it,-31,400,20","4"
"2763","","survey-text","81","461024","0.0-79.0-0.0","AWTBENF2BL2IQ","","","","{""Q0"":""sky""}","","","","","","","","","","","","","","","","","","","","","","",""
"5813","","survey-text","82","466838","0.0-80.0-0.0","AWTBENF2BL2IQ","","","","{""Q0"":""Neat mosaic.""}","","","","","","","","","","","","","","","","","","","","","","",""
"3454","","image-slider-response","83","470294","0.0-81.0","AWTBENF2BL2IQ","","","","","25","","","","","","","","","","","","","","","","","","","","","",""
"null","","image-button-response","84","475297","0.0-82.0","AWTBENF2BL2IQ","img_art/12.jpg","null","","","","","","","","","","","","","","","","","","","","","","","","",""
"6927","","image-button-response","85","482226","0.0-83.0","AWTBENF2BL2IQ","img_art/12.jpg","0","","","","","","","","","","","","","","","","","","","","","","","","",""
"1624","","image-button-response","86","483851","0.0-84.0-0.0","AWTBENF2BL2IQ","img_art/12.jpg","2","","","","","","","","","","","","","","","","","","","","","","","","",""
"806","","image-button-response","87","484659","0.0-85.0-0.0","AWTBENF2BL2IQ","img_art/12.jpg","1","","","","","","","","","","","","","","","","","","","","","","","","",""
"null","","html-keyboard-response","88","485662","0.0-86.0","AWTBENF2BL2IQ","<p style=""font-size: 48px;"">+</p>","","","","","null","allTrialResponses","1000","1","6","img_art/12.jpg","25","Neat mosaic.","Travis,Jared,Patrick,Gabriel,Joshua,Juan","Neutral...just blocks.,3,260,20","i dont see the point.,-19,400,20","I don't like the blocking,-20,280,20","dont like the squares,-16,160,20","I don't get this one. Doesn't evoke an emotional response.,-10,240,20","This is too abstract and the colors are too worn out.,-23,260,20","Travis","Neutral...just blocks.,3,260,20","Patrick","I don't like the blocking,-20,280,20","Jared","i dont see the point.,-19,400,20","4"
"16437","","survey-text","89","502105","0.0-87.0-0.0","AWTBENF2BL2IQ","","","","{""Q0"":""This looks sinister and cool, but too much green.""}","","","","","","","","","","","","","","","","","","","","","","",""
"1786","","image-slider-response","90","503893","0.0-88.0","AWTBENF2BL2IQ","","","","","-6","","","","","","","","","","","","","","","","","","","","","",""
"null","","image-button-response","91","508895","0.0-89.0","AWTBENF2BL2IQ","img_art/25.jpg","null","","","","","","","","","","","","","","","","","","","","","","","","",""
"864","","image-button-response","92","509761","0.0-90.0","AWTBENF2BL2IQ","img_art/25.jpg","2","","","","","","","","","","","","","","","","","","","","","","","","",""
"1656","","image-button-response","93","511419","0.0-91.0-0.0","AWTBENF2BL2IQ","img_art/25.jpg","1","","","","","","","","","","","","","","","","","","","","","","","","",""
"4962","","image-button-response","94","516383","0.0-92.0-0.0","AWTBENF2BL2IQ","img_art/25.jpg","4","","","","","","","","","","","","","","","","","","","","","","","","",""
"null","","html-keyboard-response","95","517886","0.0-93.0","AWTBENF2BL2IQ","<p style=""font-size: 48px;"">+</p>","","","","","null","allTrialResponses","1500","1","7","img_art/25.jpg","-6","This looks sinister and cool, but too much green.","Travis,Jared,Patrick,Hunter,Thomas,Luke","I hate the colors and the scene,-46,260,20","the green is serene. the figure is scare crow like,7,400,20","Green color is not my thing,-29,280,20","do not like that color of green,-11,240,20","I like the design but the brightness of the color feels almost blinding to me.,-3,220,20","the contrasting colors are very interesting,24,20,20","Patrick","Green color is not my thing,-29,280,20","Jared","the green is serene. the figure is scare crow like,7,400,20","Thomas","I like the design but the brightness of the color feels almost blinding to me.,-3,220,20","4"
"19785","","survey-text","96","537676","0.0-94.0-0.0","AWTBENF2BL2IQ","","","","{""Q0"":""Looks like a truck tipped over, kind of cool.""}","","","","","","","","","","","","","","","","","","","","","","",""
"2234","","image-slider-response","97","539912","0.0-95.0","AWTBENF2BL2IQ","","","","","36","","","","","","","","","","","","","","","","","","","","","",""
"null","","image-button-response","98","544915","0.0-96.0","AWTBENF2BL2IQ","img_art/20.jpg","null","","","","","","","","","","","","","","","","","","","","","","","","",""
"8049","","image-button-response","99","552965","0.0-97.0","AWTBENF2BL2IQ","img_art/20.jpg","2","","","","","","","","","","","","","","","","","","","","","","","","",""
"3474","","image-button-response","100","556441","0.0-98.0-0.0","AWTBENF2BL2IQ","img_art/20.jpg","4","","","","","","","","","","","","","","","","","","","","","","","","",""
"1769","","image-button-response","101","558213","0.0-99.0-0.0","AWTBENF2BL2IQ","img_art/20.jpg","5","","","","","","","","","","","","","","","","","","","","","","","","",""
"null","","html-keyboard-response","102","559716","0.0-100.0","AWTBENF2BL2IQ","<p style=""font-size: 48px;"">+</p>","","","","","null","allTrialResponses","1500","1","8","img_art/20.jpg","36","Looks like a truck tipped over, kind of cool.","Dalton,Jared,Patrick,Cole,Thomas,Jose","make me feel like its a little country maybe a tractor and a skull head of a bull,1,300,20","i like the rounded edges,18,400,20","Looks calm but a bit dark,21,280,20","Someone trying to be dali,-15,200,20","I really enjoy the contrast of colors (blue/red/orange),30,220,20","More dark colors and blurry objects.,13,200,20","Patrick","Looks calm but a bit dark,21,280,20","Thomas","I really enjoy the contrast of colors (blue/red/orange),30,220,20","Jose","More dark colors and blurry objects.,13,200,20","4"
"7286","","survey-text","103","567011","0.0-101.0-0.0","AWTBENF2BL2IQ","","","","{""Q0"":""What is this supposed to be?""}","","","","","","","","","","","","","","","","","","","","","","",""
"1970","","image-slider-response","104","568983","0.0-102.0","AWTBENF2BL2IQ","","","","","-40","","","","","","","","","","","","","","","","","","","","","",""
"null","","image-button-response","105","573986","0.0-103.0","AWTBENF2BL2IQ","img_art/5.jpg","null","","","","","","","","","","","","","","","","","","","","","","","","",""
"2033","","image-button-response","106","576021","0.0-104.0","AWTBENF2BL2IQ","img_art/5.jpg","3","","","","","","","","","","","","","","","","","","","","","","","","",""
"664","","image-button-response","107","576686","0.0-105.0-0.0","AWTBENF2BL2IQ","img_art/5.jpg","4","","","","","","","","","","","","","","","","","","","","","","","","",""
"1790","","image-button-response","108","578479","0.0-106.0-0.0","AWTBENF2BL2IQ","img_art/5.jpg","2","","","","","","","","","","","","","","","","","","","","","","","","",""
"null","","html-keyboard-response","109","579980","0.0-107.0","AWTBENF2BL2IQ","<p style=""font-size: 48px;"">+</p>","","","","","null","allTrialResponses","1500","1","9","img_art/5.jpg","-40","What is this supposed to be?","Justin,Shawn,Patrick,Seth,Thomas,Jose","Although it's very simple, there's something about the colors that really draws the eye.,11,280,20","Black stripe looks violent,-31,100,20","It looks random,-10,280,20","I didn't care for this art piece. I wasn't sure about the color choice.,-15,60,20","I'm confused by what I am looking at,-3,220,20","Don't love don't hate,8,200,20","Seth","I didn't care for this art piece. I wasn't sure about the color choice.,-15,60,20","Thomas","I'm confused by what I am looking at,-3,220,20","Patrick","It looks random,-10,280,20","4"
"37239","","survey-text","110","617225","0.0-108.0-0.0","AWTBENF2BL2IQ","","","","{""Q0"":""Kind of dark, but I like the realism contrasted with abstract.""}","","","","","","","","","","","","","","","","","","","","","","",""
"8464.000000000116","","image-slider-response","111","625691","0.0-109.0","AWTBENF2BL2IQ","","","","","33","","","","","","","","","","","","","","","","","","","","","",""
"null","","image-button-response","112","630695","0.0-110.0","AWTBENF2BL2IQ","img_art/16.jpg","null","","","","","","","","","","","","","","","","","","","","","","","","",""
"2131","","image-button-response","113","632828","0.0-111.0","AWTBENF2BL2IQ","img_art/16.jpg","4","","","","","","","","","","","","","","","","","","","","","","","","",""
"2764","","image-button-response","114","635594","0.0-112.0-0.0","AWTBENF2BL2IQ","img_art/16.jpg","0","","","","","","","","","","","","","","","","","","","","","","","","",""
"2387","","image-button-response","115","637984","0.0-113.0-0.0","AWTBENF2BL2IQ","img_art/16.jpg","1","","","","","","","","","","","","","","","","","","","","","","","","",""
"null","","html-keyboard-response","116","639487","0.0-114.0","AWTBENF2BL2IQ","<p style=""font-size: 48px;"">+</p>","","","","","null","allTrialResponses","1500","1","10","img_art/16.jpg","33","Kind of dark, but I like the realism contrasted with abstract.","Brendan,Tristan,Patrick,Seth,Thomas,Samuel","cool teddy bear,50,340,20","visceral and a little disturbing.,10,300,20","This painting is too random,-30,280,20","This one isn't for me. It came off as strange but not in a good way.,-44,60,20","Makes me want to know more,5,220,20","childhood horror,3,400,20","Thomas","Makes me want to know more,5,220,20","Brendan","cool teddy bear,50,340,20","Tristan","visceral and a little disturbing.,10,300,20","4"
"2739","","survey-text","117","642238","0.0-115.0-0.0","AWTBENF2BL2IQ","","","","{""Q0"":""our""}","","","","","","","","","","","","","","","","","","","","","","",""
"7830","","survey-text","118","650070","0.0-116.0-0.0","AWTBENF2BL2IQ","","","","{""Q0"":""Looks like something from the desert.""}","","","","","","","","","","","","","","","","","","","","","","",""
"3330","","image-slider-response","119","653401","0.0-117.0","AWTBENF2BL2IQ","","","","","-14","","","","","","","","","","","","","","","","","","","","","",""
"null","","image-button-response","120","658405","0.0-118.0","AWTBENF2BL2IQ","img_art/7.jpg","null","","","","","","","","","","","","","","","","","","","","","","","","",""
"898","","image-button-response","121","659305","0.0-119.0","AWTBENF2BL2IQ","img_art/7.jpg","1","","","","","","","","","","","","","","","","","","","","","","","","",""
"2656","","image-button-response","122","661963","0.0-120.0-0.0","AWTBENF2BL2IQ","img_art/7.jpg","2","","","","","","","","","","","","","","","","","","","","","","","","",""
"4408","","image-button-response","123","666372","0.0-121.0-0.0","AWTBENF2BL2IQ","img_art/7.jpg","4","","","","","","","","","","","","","","","","","","","","","","","","",""
"null","","html-keyboard-response","124","666876","0.0-122.0","AWTBENF2BL2IQ","<p style=""font-size: 48px;"">+</p>","","","","","null","allTrialResponses","500","1","11","img_art/7.jpg","-14","Looks like something from the desert.","Brendan,Tristan,Antonio,Richard,Thomas,Vincent","some rocks on a mars?,7,340,20","Limited emotional reaction for me. No focus and highly abstract,-20,300,20","Looks like dirt on the ground. Makes me feel unclean,-37,220,20","looks like wallpaper,-6,340,20","Confusion, mild aversion,-36,220,20","One I would love to own . Calm relaxing spiritual and full of love,41,360,20","Tristan","Limited emotional reaction for me. No focus and highly abstract,-20,300,20","Antonio","Looks like dirt on the ground. Makes me feel unclean,-37,220,20","Thomas","Confusion, mild aversion,-36,220,20","4"
"13004","","survey-text","125","679888","0.0-123.0-0.0","AWTBENF2BL2IQ","","","","{""Q0"":""Cool, I like the different colors in the trees.""}","","","","","","","","","","","","","","","","","","","","","","",""
"4527","","image-slider-response","126","684418","0.0-124.0","AWTBENF2BL2IQ","","","","","40","","","","","","","","","","","","","","","","","","","","","",""
"null","","image-button-response","127","689421","0.0-125.0","AWTBENF2BL2IQ","img_art/17.jpg","null","","","","","","","","","","","","","","","","","","","","","","","","",""
"5422","","image-button-response","128","694845","0.0-126.0","AWTBENF2BL2IQ","img_art/17.jpg","4","","","","","","","","","","","","","","","","","","","","","","","","",""
"3142","","image-button-response","129","697989","0.0-127.0-0.0","AWTBENF2BL2IQ","img_art/17.jpg","2","","","","","","","","","","","","","","","","","","","","","","","","",""
"3302","","image-button-response","130","701292","0.0-128.0-0.0","AWTBENF2BL2IQ","img_art/17.jpg","1","","","","","","","","","","","","","","","","","","","","","","","","",""
"null","","html-keyboard-response","131","702295","0.0-129.0","AWTBENF2BL2IQ","<p style=""font-size: 48px;"">+</p>","","","","","null","allTrialResponses","1000","1","12","img_art/17.jpg","40","Cool, I like the different colors in the trees.","Jake,Tristan,Antonio,Jonathan,Thomas,Blake","This could have been good but was poorly done.,-5,360,20","peaceful. contemplative. balanced. old,10,300,20","Beautiful colors. Made me feel soft and feminine,50,220,20","Feels nostalgic somehow,31,140,20","Colors and composition are beautiful. I would hang this in my home.,50,220,20","soft and warm light colors are relaxing,12,280,20","Thomas","Colors and composition are beautiful. I would hang this in my home.,50,220,20","Antonio","Beautiful colors. Made me feel soft and feminine,50,220,20","Tristan","peaceful. contemplative. balanced. old,10,300,20","4"
"10009","","survey-text","132","712310","0.0-130.0-0.0","AWTBENF2BL2IQ","","","","{""Q0"":""Too abstract, too much going on in this.""}","","","","","","","","","","","","","","","","","","","","","","",""
"2196","","image-slider-response","133","714508","0.0-131.0","AWTBENF2BL2IQ","","","","","-24","","","","","","","","","","","","","","","","","","","","","",""
"null","","image-button-response","134","719510","0.0-132.0","AWTBENF2BL2IQ","img_art/9.jpg","null","","","","","","","","","","","","","","","","","","","","","","","","",""
"1272","","image-button-response","135","720784","0.0-133.0","AWTBENF2BL2IQ","img_art/9.jpg","0","","","","","","","","","","","","","","","","","","","","","","","","",""
"4128","","image-button-response","136","724914","0.0-134.0-0.0","AWTBENF2BL2IQ","img_art/9.jpg","1","","","","","","","","","","","","","","","","","","","","","","","","",""
"4568","","image-button-response","137","729483","0.0-135.0-0.0","AWTBENF2BL2IQ","img_art/9.jpg","4","","","","","","","","","","","","","","","","","","","","","","","","",""
"null","","html-keyboard-response","138","730986","0.0-136.0","AWTBENF2BL2IQ","<p style=""font-size: 48px;"">+</p>","","","","","null","allTrialResponses","1500","1","13","img_art/9.jpg","-24","Too abstract, too much going on in this.","Marcus,Tristan,Antonio,Isaac,Thomas,Gregory","This painting feels too jumbled for me to like it.,-12,60,20","The busyness and harsh nature of the lines in this painting  mute my emotional response.,-10,300,20","Stirs up emotions of watching someone sleep which is relaxing,11,220,20","I don't like the obvious lines of colored pencil on the border.,-24,280,20","I don't like the picture, but it wouldn't surprise me if someone did,-20,220,20","Mash up of colors and designs don't really go together,-5,220,20","Marcus","This painting feels too jumbled for me to like it.,-12,60,20","Tristan","The busyness and harsh nature of the lines in this painting  mute my emotional response.,-10,300,20","Thomas","I don't like the picture, but it wouldn't surprise me if someone did,-20,220,20","4"
"8627","","survey-text","139","739619","0.0-137.0-0.0","AWTBENF2BL2IQ","","","","{""Q0"":""Blobs of color, don't like it.""}","","","","","","","","","","","","","","","","","","","","","","",""
"2526.9999999998836","","image-slider-response","140","742147","0.0-138.0","AWTBENF2BL2IQ","","","","","-39","","","","","","","","","","","","","","","","","","","","","",""
"null","","image-button-response","141","747150","0.0-139.0","AWTBENF2BL2IQ","img_art/22.jpg","null","","","","","","","","","","","","","","","","","","","","","","","","",""
"1243","","image-button-response","142","748399","0.0-140.0","AWTBENF2BL2IQ","img_art/22.jpg","2","","","","","","","","","","","","","","","","","","","","","","","","",""
"2336","","image-button-response","143","750737","0.0-141.0-0.0","AWTBENF2BL2IQ","img_art/22.jpg","1","","","","","","","","","","","","","","","","","","","","","","","","",""
"5880","","image-button-response","144","756620","0.0-142.0-0.0","AWTBENF2BL2IQ","img_art/22.jpg","0","","","","","","","","","","","","","","","","","","","","","","","","",""
"null","","html-keyboard-response","145","758123","0.0-143.0","AWTBENF2BL2IQ","<p style=""font-size: 48px;"">+</p>","","","","","null","allTrialResponses","1500","1","14","img_art/22.jpg","-39","Blobs of color, don't like it.","Marcus,Tristan,Peter,Evan,Thomas,Derek","Like the colors. I enjoy looking at this one.,15,60,20","I appreciate the shapes but the abundance of primary colors make it seem garrish.,-10,300,20","Just neutral no feelings,2,320,20","I enjoy the vibrant colors,23,140,20","Beautiful. I love the color contrast and gradients.,50,220,20","Really pretty. Love the colors.,30,360,20","Peter","Just neutral no feelings,2,320,20","Tristan","I appreciate the shapes but the abundance of primary colors make it seem garrish.,-10,300,20","Marcus","Like the colors. I enjoy looking at this one.,15,60,20","4"
"24658","","survey-text","146","782789","0.0-144.0-0.0","AWTBENF2BL2IQ","","","","{""Q0"":""Pretty empty on the outside, but gets crazy towards the middle, somewhat interesting.""}","","","","","","","","","","","","","","","","","","","","","","",""
"10891","","image-slider-response","147","793682","0.0-145.0","AWTBENF2BL2IQ","","","","","37","","","","","","","","","","","","","","","","","","","","","",""
"null","","image-button-response","148","798685","0.0-146.0","AWTBENF2BL2IQ","img_art/18.jpg","null","","","","","","","","","","","","","","","","","","","","","","","","",""
"2127","","image-button-response","149","800812","0.0-147.0","AWTBENF2BL2IQ","img_art/18.jpg","1","","","","","","","","","","","","","","","","","","","","","","","","",""
"5318","","image-button-response","150","806132","0.0-148.0-0.0","AWTBENF2BL2IQ","img_art/18.jpg","5","","","","","","","","","","","","","","","","","","","","","","","","",""
"2349","","image-button-response","151","808484","0.0-149.0-0.0","AWTBENF2BL2IQ","img_art/18.jpg","0","","","","","","","","","","","","","","","","","","","","","","","","",""
"null","","html-keyboard-response","152","809987","0.0-150.0","AWTBENF2BL2IQ","<p style=""font-size: 48px;"">+</p>","","","","","null","allTrialResponses","1500","1","15","img_art/18.jpg","37","Pretty empty on the outside, but gets crazy towards the middle, somewhat interesting.","Marcus,Tristan,Peter,Cody,Joseph,Ian","like the grays and contrast of the yellow. This piece feels a bit angry,10,60,20","So much going on. Frightening and tumultous, brave and inspiring. I'd like to spend the rest of my life interpreting it.,30,300,20","I'm not partial to the design, unsettling,2,320,20","Vaguely creepy ........,-20,180,20","It's like a ship, but a freaky ship.,-11,220,20","This one raises some questions, there could be some sort of fight or battle going on.,11,260,20","Tristan","So much going on. Frightening and tumultous, brave and inspiring. I'd like to spend the rest of my life interpreting it.,30,300,20","Ian","This one raises some questions, there could be some sort of fight or battle going on.,11,260,20","Marcus","like the grays and contrast of the yellow. This piece feels a bit angry,10,60,20","4"
"9623","","survey-text","153","819624","0.0-151.0-0.0","AWTBENF2BL2IQ","","","","{""Q0"":""course""}","","","","","","","","","","","","","","","","","","","","","","",""
"47188","","survey-text","154","866813","0.0-152.0-0.0","AWTBENF2BL2IQ","","","","{""Q0"":""The colors look gross, looks like a deformed hand.""}","","","","","","","","","","","","","","","","","","","","","","",""
"2429","","image-slider-response","155","869244","0.0-153.0","AWTBENF2BL2IQ","","","","","-43","","","","","","","","","","","","","","","","","","","","","",""
"null","","image-button-response","156","874248","0.0-154.0","AWTBENF2BL2IQ","img_art/4.jpg","null","","","","","","","","","","","","","","","","","","","","","","","","",""
"1652","","image-button-response","157","875903","0.0-155.0","AWTBENF2BL2IQ","img_art/4.jpg","3","","","","","","","","","","","","","","","","","","","","","","","","",""
"2357","","image-button-response","158","878263","0.0-156.0-0.0","AWTBENF2BL2IQ","img_art/4.jpg","5","","","","","","","","","","","","","","","","","","","","","","","","",""
"2242","","image-button-response","159","880507","0.0-157.0-0.0","AWTBENF2BL2IQ","img_art/4.jpg","2","","","","","","","","","","","","","","","","","","","","","","","","",""
"null","","html-keyboard-response","160","881010","0.0-158.0","AWTBENF2BL2IQ","<p style=""font-size: 48px;"">+</p>","","","","","null","allTrialResponses","500","1","16","img_art/4.jpg","-43","The colors look gross, looks like a deformed hand.","Marcus,Tristan,Alejandro,Nathaniel,Eric,Ian","Really like the colors, but don't like the object/squiggle in darker gold and black,4,60,20","disturbing and uncomfortable.,10,300,20","Looks like finger nails from the Guinness world record book.,-30,80,20","Boring and tasteless. Almost reminds me of when an art gallery called a banana 'art',-42,220,20","This piece catches my eye, but it's strange to me.,10,100,20","I just don't understand this one at all, I do not like it,-43,260,20","Nathaniel","Boring and tasteless. Almost reminds me of when an art gallery called a banana 'art',-42,220,20","Ian","I just don't understand this one at all, I do not like it,-43,260,20","Alejandro","Looks like finger nails from the Guinness world record book.,-30,80,20","4"
"34909","","survey-text","161","915925","0.0-159.0-0.0","AWTBENF2BL2IQ","","","","{""Q0"":""Too much color, nothing of substance to look at.""}","","","","","","","","","","","","","","","","","","","","","","",""
"3132.9999999998836","","image-slider-response","162","919060","0.0-160.0","AWTBENF2BL2IQ","","","","","-50","","","","","","","","","","","","","","","","","","","","","",""
"null","","image-button-response","163","924064","0.0-161.0","AWTBENF2BL2IQ","img_art/1.jpg","null","","","","","","","","","","","","","","","","","","","","","","","","",""
"800","","image-button-response","164","924864","0.0-162.0","AWTBENF2BL2IQ","img_art/1.jpg","5","","","","","","","","","","","","","","","","","","","","","","","","",""
"7993","","image-button-response","165","932860","0.0-163.0-0.0","AWTBENF2BL2IQ","img_art/1.jpg","3","","","","","","","","","","","","","","","","","","","","","","","","",""
"1783","","image-button-response","166","934646","0.0-164.0-0.0","AWTBENF2BL2IQ","img_art/1.jpg","4","","","","","","","","","","","","","","","","","","","","","","","","",""
"null","","html-keyboard-response","167","935149","0.0-165.0","AWTBENF2BL2IQ","<p style=""font-size: 48px;"">+</p>","","","","","null","allTrialResponses","500","1","17","img_art/1.jpg","-50","Too much color, nothing of substance to look at.","Luis,Jordan,Alejandro,Nathaniel,Jesus,Ian","I love the calming comfort and safe feeling of this,50,400,20","I like the warmth of the picture,21,160,20","Interesting color scheme but to bled to me,11,80,20","A bit of a smokey mess, but it does have an air of mystery I like,7,220,20","I like the simple aspect to the design,21,100,20","Someone painted a landscape and decided they didn't like it so they covered it up.,13,260,20","Ian","Someone painted a landscape and decided they didn't like it so they covered it up.,13,260,20","Nathaniel","A bit of a smokey mess, but it does have an air of mystery I like,7,220,20","Jesus","I like the simple aspect to the design,21,100,20","4"
"20290","","survey-text","168","955448","0.0-166.0-0.0","AWTBENF2BL2IQ","","","","{""Q0"":""Somewhat interesting, like a bunch of fruit falling off of a tree or something.""}","","","","","","","","","","","","","","","","","","","","","","",""
"6140","","image-slider-response","169","961589","0.0-167.0","AWTBENF2BL2IQ","","","","","11","","","","","","","","","","","","","","","","","","","","","",""
"null","","image-button-response","170","966593","0.0-168.0","AWTBENF2BL2IQ","img_art/14.jpg","null","","","","","","","","","","","","","","","","","","","","","","","","",""
"9557","","image-button-response","171","976152","0.0-169.0","AWTBENF2BL2IQ","img_art/14.jpg","1","","","","","","","","","","","","","","","","","","","","","","","","",""
"3612","","image-button-response","172","979766","0.0-170.0-0.0","AWTBENF2BL2IQ","img_art/14.jpg","3","","","","","","","","","","","","","","","","","","","","","","","","",""
"5452","","image-button-response","173","985220","0.0-171.0-0.0","AWTBENF2BL2IQ","img_art/14.jpg","2","","","","","","","","","","","","","","","","","","","","","","","","",""
"null","","html-keyboard-response","174","985723","0.0-172.0","AWTBENF2BL2IQ","<p style=""font-size: 48px;"">+</p>","","","","","null","allTrialResponses","500","1","18","img_art/14.jpg","11","Somewhat interesting, like a bunch of fruit falling off of a tree or something.","Timothy,Mitchell,Jacob,Nathaniel,Jesus,Ian","Something about the cahotic imagery makes me uncomfortable,-15,240,20","Tornado, nature. trees falling and displaced creatures. Love the colors though.,1,180,20","I kind of like it!,6,340,20","Not quite the style I'd like, but it does have a certain air of emptiness.,12,220,20","I like the combination of colors and textures.,35,100,20","This just looks like a kids watercolor painting.,-30,260,20","Mitchell","Tornado, nature. trees falling and displaced creatures. Love the colors though.,1,180,20","Nathaniel","Not quite the style I'd like, but it does have a certain air of emptiness.,12,220,20","Jacob","I kind of like it!,6,340,20","4"
"46850","","survey-text","175","1032580","0.0-173.0-0.0","AWTBENF2BL2IQ","","","","{""Q0"":""Looks interesting, like a park in the city, but I don't like the watercolor abstract look of it.""}","","","","","","","","","","","","","","","","","","","","","","",""
"12890.999999999767","","image-slider-response","176","1045473","0.0-174.0","AWTBENF2BL2IQ","","","","","-11","","","","","","","","","","","","","","","","","","","","","",""
"null","","image-button-response","177","1050477","0.0-175.0","AWTBENF2BL2IQ","img_art/26.jpg","null","","","","","","","","","","","","","","","","","","","","","","","","",""
"6671","","image-button-response","178","1057148","0.0-176.0","AWTBENF2BL2IQ","img_art/26.jpg","1","","","","","","","","","","","","","","","","","","","","","","","","",""
"7156","","image-button-response","179","1064306","0.0-177.0-0.0","AWTBENF2BL2IQ","img_art/26.jpg","3","","","","","","","","","","","","","","","","","","","","","","","","",""
"1672","","image-button-response","180","1065980","0.0-178.0-0.0","AWTBENF2BL2IQ","img_art/26.jpg","5","","","","","","","","","","","","","","","","","","","","","","","","",""
"null","","html-keyboard-response","181","1067484","0.0-179.0","AWTBENF2BL2IQ","<p style=""font-size: 48px;"">+</p>","","","","","null","allTrialResponses","1500","1","19","img_art/26.jpg","-11","Looks interesting, like a park in the city, but I don't like the watercolor abstract look of it.","Connor,Mitchell,Jacob,Nathaniel,Kevin,Chase","City scene in a park,23,240,20","Incomplete, The artist painted his impression of somthing he was thinking of,0,180,20","It doesn't look so vibrant, I'm not sure what feelings they were trying to capture,-41,340,20","Too blocky and unfocused. It's like the inside of a house, and the outside.,-24,220,20","Some trees in front of a house.,2,320,20","I don't really see the point in this painting.,-16,120,20","Mitchell","Incomplete, The artist painted his impression of somthing he was thinking of,0,180,20","Nathaniel","Too blocky and unfocused. It's like the inside of a house, and the outside.,-24,220,20","Chase","I don't really see the point in this painting.,-16,120,20","4"
"16289","","survey-text","182","1083782","0.0-180.0-0.0","AWTBENF2BL2IQ","","","","{""Q0"":""Looks like a murder scene. I like the red X throughout it though.""}","","","","","","","","","","","","","","","","","","","","","","",""
"3372","","image-slider-response","183","1087155","0.0-181.0","AWTBENF2BL2IQ","","","","","22","","","","","","","","","","","","","","","","","","","","","",""
"null","","image-button-response","184","1092158","0.0-182.0","AWTBENF2BL2IQ","img_art/29.jpg","null","","","","","","","","","","","","","","","","","","","","","","","","",""
"1035","","image-button-response","185","1093194","0.0-183.0","AWTBENF2BL2IQ","img_art/29.jpg","4","","","","","","","","","","","","","","","","","","","","","","","","",""
"9127","","image-button-response","186","1102324","0.0-184.0-0.0","AWTBENF2BL2IQ","img_art/29.jpg","0","","","","","","","","","","","","","","","","","","","","","","","","",""
"2727","","image-button-response","187","1105054","0.0-185.0-0.0","AWTBENF2BL2IQ","img_art/29.jpg","1","","","","","","","","","","","","","","","","","","","","","","","","",""
"null","","html-keyboard-response","188","1106057","0.0-186.0","AWTBENF2BL2IQ","<p style=""font-size: 48px;"">+</p>","","","","","null","allTrialResponses","1000","1","20","img_art/29.jpg","22","Looks like a murder scene. I like the red X throughout it though.","Sean,Mitchell,Bradley,Nathaniel,Brett,Chase","my response to the picture is that it looks so nice and cool and the details,34,40,20","death, darkness, negative picture,-31,180,20","It's creative. It's just not my thing.,-32,300,20","Giant messy blob. Looks like it tries to be edgy, but fails.,-40,220,20","Reminds me of graffitti gone wrong,15,360,20","This is ugly as fuck,-50,120,20","Brett","Reminds me of graffitti gone wrong,15,360,20","Sean","my response to the picture is that it looks so nice and cool and the details,34,40,20","Mitchell","death, darkness, negative picture,-31,180,20","4"
"7858","","survey-text","189","1113928","0.0-187.0-0.0","AWTBENF2BL2IQ","","","","{""Q0"":""we""}","","","","","","","","","","","","","","","","","","","","","","",""
"14690","","survey-text","190","1128620","0.0-188.0-0.0","AWTBENF2BL2IQ","","","","{""Q0"":""I like this, feels cold, but with warmth splashed throughout.""}","","","","","","","","","","","","","","","","","","","","","","",""
"2806","","image-slider-response","191","1131427","0.0-189.0","AWTBENF2BL2IQ","","","","","29","","","","","","","","","","","","","","","","","","","","","",""
"null","","image-button-response","192","1136431","0.0-190.0","AWTBENF2BL2IQ","img_art/13.jpg","null","","","","","","","","","","","","","","","","","","","","","","","","",""
"2502","","image-button-response","193","1138935","0.0-191.0","AWTBENF2BL2IQ","img_art/13.jpg","1","","","","","","","","","","","","","","","","","","","","","","","","",""
"17110","","image-button-response","194","1156046","0.0-192.0-0.0","AWTBENF2BL2IQ","img_art/13.jpg","3","","","","","","","","","","","","","","","","","","","","","","","","",""
"4928","","image-button-response","195","1160976","0.0-193.0-0.0","AWTBENF2BL2IQ","img_art/13.jpg","4","","","","","","","","","","","","","","","","","","","","","","","","",""
"null","","html-keyboard-response","196","1161480","0.0-194.0","AWTBENF2BL2IQ","<p style=""font-size: 48px;"">+</p>","","","","","null","allTrialResponses","500","1","21","img_art/13.jpg","29","I like this, feels cold, but with warmth splashed throughout.","Sean,Mitchell,Dustin,Mark,Brett,Nathan","I like the colors,7,40,20","Magnified rain around trees. Beautiful happy colors. The little person on the right feels nature is huge.,45,180,20","Cool and calming colors. I like splatter art.,10,20,20","Raindrops on a window. Makes me feel like traveling.,31,80,20","Very abstract and soothing,40,360,20","While it is a bit basic and doesn't speak to me much, I like the feeling it gives,40,200,20","Mitchell","Magnified rain around trees. Beautiful happy colors. The little person on the right feels nature is huge.,45,180,20","Mark","Raindrops on a window. Makes me feel like traveling.,31,80,20","Brett","Very abstract and soothing,40,360,20","4"
"11156","","survey-text","197","1172644","0.0-195.0-0.0","AWTBENF2BL2IQ","","","","{""Q0"":""I like the gate to the city with the idol or something above it.""}","","","","","","","","","","","","","","","","","","","","","","",""
"3333","","image-slider-response","198","1175980","0.0-196.0","AWTBENF2BL2IQ","","","","","42","","","","","","","","","","","","","","","","","","","","","",""
"null","","image-button-response","199","1180982","0.0-197.0","AWTBENF2BL2IQ","img_art/8.jpg","null","","","","","","","","","","","","","","","","","","","","","","","","",""
"1184","","image-button-response","200","1182168","0.0-198.0","AWTBENF2BL2IQ","img_art/8.jpg","1","","","","","","","","","","","","","","","","","","","","","","","","",""
"1925","","image-button-response","201","1184095","0.0-199.0-0.0","AWTBENF2BL2IQ","img_art/8.jpg","2","","","","","","","","","","","","","","","","","","","","","","","","",""
"4871","","image-button-response","202","1188967","0.0-200.0-0.0","AWTBENF2BL2IQ","img_art/8.jpg","3","","","","","","","","","","","","","","","","","","","","","","","","",""
"null","","html-keyboard-response","203","1189471","0.0-201.0","AWTBENF2BL2IQ","<p style=""font-size: 48px;"">+</p>","","","","","null","allTrialResponses","500","1","22","img_art/8.jpg","42","I like the gate to the city with the idol or something above it.","Paul,Mitchell,Ryan,Mark,Brett,Victor","The faces in the upper left show agony and contrast with the geometric shapes too much,-31,300,20","Lost in a big city confuse as to where to go to next. No matter if you live in a mansion or homeless. Being bigger than what is going on around you,30,180,20","I love architectural paintings,46,380,20","The face makes me think its a statement of the almighty of big brother watching us. onfuCsion limits my enjoyment.,6,80,20","Very abstract and seems symbolic,45,360,20","I like the colors,10,340,20","Mitchell","Lost in a big city confuse as to where to go to next. No matter if you live in a mansion or homeless. Being bigger than what is going on around you,30,180,20","Ryan","I love architectural paintings,46,380,20","Mark","The face makes me think its a statement of the almighty of big brother watching us. onfuCsion limits my enjoyment.,6,80,20","4"
"15690","","survey-text","204","1205169","0.0-202.0-0.0","AWTBENF2BL2IQ","","","","{""Q0"":""Looks like the bottom half of a crow standing on the ground. I like it though.""}","","","","","","","","","","","","","","","","","","","","","","",""
"2044","","image-slider-response","205","1207215","0.0-203.0","AWTBENF2BL2IQ","","","","","28","","","","","","","","","","","","","","","","","","","","","",""
"null","","image-button-response","206","1212218","0.0-204.0","AWTBENF2BL2IQ","img_art/6.jpg","null","","","","","","","","","","","","","","","","","","","","","","","","",""
"1818","","image-button-response","207","1214037","0.0-205.0","AWTBENF2BL2IQ","img_art/6.jpg","4","","","","","","","","","","","","","","","","","","","","","","","","",""
"2222","","image-button-response","208","1216261","0.0-206.0-0.0","AWTBENF2BL2IQ","img_art/6.jpg","5","","","","","","","","","","","","","","","","","","","","","","","","",""
"2487","","image-button-response","209","1218751","0.0-207.0-0.0","AWTBENF2BL2IQ","img_art/6.jpg","0","","","","","","","","","","","","","","","","","","","","","","","","",""
"null","","html-keyboard-response","210","1220254","0.0-208.0","AWTBENF2BL2IQ","<p style=""font-size: 48px;"">+</p>","","","","","null","allTrialResponses","1500","1","23","img_art/6.jpg","28","Looks like the bottom half of a crow standing on the ground. I like it though.","David,Mitchell,Ryan,Mark,Alexis,Benjamin","I like the simplicity of the piece.,10,340,20","Looking, searching at the same time being content.,30,180,20","Makes me feel lonely,-22,380,20","So forlorn, and beauty amid desolation.,25,80,20","This looks like a crow, sort of bleak,-26,140,20","Something very simplistic about it. The colors mesh well.,10,260,20","Alexis","This looks like a crow, sort of bleak,-26,140,20","Benjamin","Something very simplistic about it. The colors mesh well.,10,260,20","David","I like the simplicity of the piece.,10,340,20","4"
"17140","","survey-text","211","1237401","0.0-209.0-0.0","AWTBENF2BL2IQ","","","","{""Q0"":""Too abstract. Makes me think of a dragon spitting fire at an iceberg or something weird.""}","","","","","","","","","","","","","","","","","","","","","","",""
"3014","","image-slider-response","212","1240416","0.0-210.0","AWTBENF2BL2IQ","","","","","6","","","","","","","","","","","","","","","","","","","","","",""
"null","","image-button-response","213","1245419","0.0-211.0","AWTBENF2BL2IQ","img_art/21.jpg","null","","","","","","","","","","","","","","","","","","","","","","","","",""
"831","","image-button-response","214","1246252","0.0-212.0","AWTBENF2BL2IQ","img_art/21.jpg","0","","","","","","","","","","","","","","","","","","","","","","","","",""
"4746","","image-button-response","215","1251000","0.0-213.0-0.0","AWTBENF2BL2IQ","img_art/21.jpg","2","","","","","","","","","","","","","","","","","","","","","","","","",""
"5184","","image-button-response","216","1256186","0.0-214.0-0.0","AWTBENF2BL2IQ","img_art/21.jpg","1","","","","","","","","","","","","","","","","","","","","","","","","",""
"null","","html-keyboard-response","217","1256688","0.0-215.0","AWTBENF2BL2IQ","<p style=""font-size: 48px;"">+</p>","","","","","null","allTrialResponses","500","1","24","img_art/21.jpg","6","Too abstract. Makes me think of a dragon spitting fire at an iceberg or something weird.","David,Brian,Taylor,Scott,Alexis,Benjamin","I like how the piece has the possibility of depicting some type of story.,30,340,20","there's not enough fine detail in this one,-27,380,20","Remove the rocks(?) on the lower right.,5,200,20","looks like a sunrise, great colors,40,20,20","It makes me feel mellow or ""chill"". It makes me have a positive and calm mood,42,140,20","sunset after the rain,49,260,20","David","I like how the piece has the possibility of depicting some type of story.,30,340,20","Taylor","Remove the rocks(?) on the lower right.,5,200,20","Brian","there's not enough fine detail in this one,-27,380,20","4"
"9550","","survey-text","218","1266245","0.0-216.0-0.0","AWTBENF2BL2IQ","","","","{""Q0"":""Looks like a toddler tried to color something in.""}","","","","","","","","","","","","","","","","","","","","","","",""
"2198","","image-slider-response","219","1268445","0.0-217.0","AWTBENF2BL2IQ","","","","","-39","","","","","","","","","","","","","","","","","","","","","",""
"null","","image-button-response","220","1273448","0.0-218.0","AWTBENF2BL2IQ","img_art/30.jpg","null","","","","","","","","","","","","","","","","","","","","","","","","",""
"1075","","image-button-response","221","1274525","0.0-219.0","AWTBENF2BL2IQ","img_art/30.jpg","1","","","","","","","","","","","","","","","","","","","","","","","","",""
"3268","","image-button-response","222","1277795","0.0-220.0-0.0","AWTBENF2BL2IQ","img_art/30.jpg","2","","","","","","","","","","","","","","","","","","","","","","","","",""
"2609","","image-button-response","223","1280407","0.0-221.0-0.0","AWTBENF2BL2IQ","img_art/30.jpg","3","","","","","","","","","","","","","","","","","","","","","","","","",""
"null","","html-keyboard-response","224","1280909","0.0-222.0","AWTBENF2BL2IQ","<p style=""font-size: 48px;"">+</p>","","","","","null","allTrialResponses","500","1","25","img_art/30.jpg","-39","Looks like a toddler tried to color something in.","David,Brian,Taylor,Mason,Stephen,Steven","I like how the strokes invokes a sense of fluidity.,20,340,20","this is probably part of a neat series, but the abstraction doesn't speak to me,-17,380,20","My kid drew this same picture at daycare!!!,5,200,20","Neat, but simple, I could make this. not skilled.,9,100,20","A bit too dark for my liking,-10,140,20","cant see the meaning behind it,-20,160,20","Brian","this is probably part of a neat series, but the abstraction doesn't speak to me,-17,380,20","Taylor","My kid drew this same picture at daycare!!!,5,200,20","Mason","Neat, but simple, I could make this. not skilled.,9,100,20","4"
"6914","","survey-text","225","1287835","0.0-223.0-0.0","AWTBENF2BL2IQ","","","","{""Q0"":""table""}","","","","","","","","","","","","","","","","","","","","","","",""
"19850","","survey-text","226","1307686","0.0-224.0-0.0","AWTBENF2BL2IQ","","","","{""Q0"":""Kind of busy, but kind of intriguing at the same time. Like a line of people dancing or something.""}","","","","","","","","","","","","","","","","","","","","","","",""
"2614","","image-slider-response","227","1310302","0.0-225.0","AWTBENF2BL2IQ","","","","","21","","","","","","","","","","","","","","","","","","","","","",""
"null","","image-button-response","228","1315305","0.0-226.0","AWTBENF2BL2IQ","img_art/23.jpg","null","","","","","","","","","","","","","","","","","","","","","","","","",""
"1612","","image-button-response","229","1316919","0.0-227.0","AWTBENF2BL2IQ","img_art/23.jpg","1","","","","","","","","","","","","","","","","","","","","","","","","",""
"1192","","image-button-response","230","1318113","0.0-228.0-0.0","AWTBENF2BL2IQ","img_art/23.jpg","0","","","","","","","","","","","","","","","","","","","","","","","","",""
"10139","","image-button-response","231","1328254","0.0-229.0-0.0","AWTBENF2BL2IQ","img_art/23.jpg","5","","","","","","","","","","","","","","","","","","","","","","","","",""
"null","","html-keyboard-response","232","1329757","0.0-230.0","AWTBENF2BL2IQ","<p style=""font-size: 48px;"">+</p>","","","","","null","allTrialResponses","1500","1","26","img_art/23.jpg","21","Kind of busy, but kind of intriguing at the same time. Like a line of people dancing or something.","Adam,Brian,Taylor,Mason,Kyle,Andrew","I like the color contrast, though I'm unable to tell what the white shapes are.,25,40,20","this looks like a pop rock album cover,-10,380,20","SOME thought was put into this one.,5,200,20","No reactions, childish.,-19,100,20","Mostly neutral but a bit too guady with the brash colors,-6,340,20","The color contrast makes me happy,40,160,20","Brian","this looks like a pop rock album cover,-10,380,20","Adam","I like the color contrast, though I'm unable to tell what the white shapes are.,25,40,20","Andrew","The color contrast makes me happy,40,160,20","4"
"27836","","survey-text","233","1357602","0.0-231.0-0.0","AWTBENF2BL2IQ","","","","{""Q0"":""Makes me think of a winter day, with snow on the trees.""}","","","","","","","","","","","","","","","","","","","","","","",""
"2869","","image-slider-response","234","1360474","0.0-232.0","AWTBENF2BL2IQ","","","","","24","","","","","","","","","","","","","","","","","","","","","",""
"null","","image-button-response","235","1365476","0.0-233.0","AWTBENF2BL2IQ","img_art/10.jpg","null","","","","","","","","","","","","","","","","","","","","","","","","",""
"526","","image-button-response","236","1366004","0.0-234.0","AWTBENF2BL2IQ","img_art/10.jpg","5","","","","","","","","","","","","","","","","","","","","","","","","",""
"512","","image-button-response","237","1366518","0.0-235.0-0.0","AWTBENF2BL2IQ","img_art/10.jpg","4","","","","","","","","","","","","","","","","","","","","","","","","",""
"3166","","image-button-response","238","1369685","0.0-236.0-0.0","AWTBENF2BL2IQ","img_art/10.jpg","0","","","","","","","","","","","","","","","","","","","","","","","","",""
"null","","html-keyboard-response","239","1370688","0.0-237.0","AWTBENF2BL2IQ","<p style=""font-size: 48px;"">+</p>","","","","","null","allTrialResponses","1000","1","27","img_art/10.jpg","24","Makes me think of a winter day, with snow on the trees.","Adam,Brian,Corey,Jason,Christopher,Andrew","I like the contrast,10,40,20","this is a good painting, but feels musical in a way that I don't connect with.,-14,380,20","I think this was going to be a guitar but then the artist got mad and gave up,-4,260,20","Picture looks smudged,-7,20,20","i like this, the mix of brush textures is cool,24,160,20","Makes me think of the exhilaration of a roller coaster,31,160,20","Andrew","Makes me think of the exhilaration of a roller coaster,31,160,20","Christopher","i like this, the mix of brush textures is cool,24,160,20","Adam","I like the contrast,10,40,20","4"
"9868","","survey-text","240","1380566","0.0-238.0-0.0","AWTBENF2BL2IQ","","","","{""Q0"":""Too red, just random strokes all over the place.""}","","","","","","","","","","","","","","","","","","","","","","",""
"2954","","image-slider-response","241","1383521","0.0-239.0","AWTBENF2BL2IQ","","","","","-36","","","","","","","","","","","","","","","","","","","","","",""
"null","","image-button-response","242","1388525","0.0-240.0","AWTBENF2BL2IQ","img_art/3.jpg","null","","","","","","","","","","","","","","","","","","","","","","","","",""
"954","","image-button-response","243","1389481","0.0-241.0","AWTBENF2BL2IQ","img_art/3.jpg","3","","","","","","","","","","","","","","","","","","","","","","","","",""
"5558","","image-button-response","244","1395040","0.0-242.0-0.0","AWTBENF2BL2IQ","img_art/3.jpg","5","","","","","","","","","","","","","","","","","","","","","","","","",""
"1372","","image-button-response","245","1396414","0.0-243.0-0.0","AWTBENF2BL2IQ","img_art/3.jpg","1","","","","","","","","","","","","","","","","","","","","","","","","",""
"null","","html-keyboard-response","246","1396917","0.0-244.0","AWTBENF2BL2IQ","<p style=""font-size: 48px;"">+</p>","","","","","null","allTrialResponses","500","1","28","img_art/3.jpg","-36","Too red, just random strokes all over the place.","Adam,Bryce,Ethan,Miguel,Christopher,Andrew","Reminds me of a hot mess,-10,40,20","Scary. Looks like blood.,-45,20,20","I usually don't like red. Red in this angry piece is very fitting.,19,120,20","Unfocused and rushed.,-28,160,20","the red is impactful but the work overall doesn't say anything to me,-8,160,20","It doesn't make me think of art,-20,160,20","Miguel","Unfocused and rushed.,-28,160,20","Andrew","It doesn't make me think of art,-20,160,20","Bryce","Scary. Looks like blood.,-45,20,20","4"
"15896","","survey-text","247","1412820","0.0-245.0-0.0","AWTBENF2BL2IQ","","","","{""Q0"":""Too abstract, can't even tell what's going on, but I do enjoy the colors.""}","","","","","","","","","","","","","","","","","","","","","","",""
"26063.000000000233","","image-slider-response","248","1438885","0.0-246.0","AWTBENF2BL2IQ","","","","","-30","","","","","","","","","","","","","","","","","","","","","",""
"null","","image-button-response","249","1443888","0.0-247.0","AWTBENF2BL2IQ","img_art/28.jpg","null","","","","","","","","","","","","","","","","","","","","","","","","",""
"3551","","image-button-response","250","1447441","0.0-248.0","AWTBENF2BL2IQ","img_art/28.jpg","1","","","","","","","","","","","","","","","","","","","","","","","","",""
"3982","","image-button-response","251","1451425","0.0-249.0-0.0","AWTBENF2BL2IQ","img_art/28.jpg","4","","","","","","","","","","","","","","","","","","","","","","","","",""
"2381","","image-button-response","252","1453809","0.0-250.0-0.0","AWTBENF2BL2IQ","img_art/28.jpg","3","","","","","","","","","","","","","","","","","","","","","","","","",""
"null","","html-keyboard-response","253","1455312","0.0-251.0","AWTBENF2BL2IQ","<p style=""font-size: 48px;"">+</p>","","","","","null","allTrialResponses","1500","1","29","img_art/28.jpg","-30","Too abstract, can't even tell what's going on, but I do enjoy the colors.","Logan,Bryce,Bryan,Miguel,Garrett,Andrew","I wish I knew why I liked it, maybes its the pinky tones,36,360,20","It gives me weird vibes.,-25,20,20","A meeting in Old Jerusalem.,11,400,20","Looks yucky and poor.,-33,160,20","I don't like the way the colors look; I think very disgusting colors were used.,-20,180,20","Doesn't give me an emotional response,0,160,20","Bryce","It gives me weird vibes.,-25,20,20","Garrett","I don't like the way the colors look; I think very disgusting colors were used.,-20,180,20","Miguel","Looks yucky and poor.,-33,160,20","4"
"30298","","survey-text","254","1485619","0.0-252.0-0.0","AWTBENF2BL2IQ","","","","{""Q0"":""Looks like some sort of a colorful waterfall through a very colorful forest. I like it a lot.""}","","","","","","","","","","","","","","","","","","","","","","",""
"4479","","image-slider-response","255","1490100","0.0-253.0","AWTBENF2BL2IQ","","","","","50","","","","","","","","","","","","","","","","","","","","","",""
"null","","image-button-response","256","1495105","0.0-254.0","AWTBENF2BL2IQ","img_art/24.jpg","null","","","","","","","","","","","","","","","","","","","","","","","","",""
"428","","image-button-response","257","1495535","0.0-255.0","AWTBENF2BL2IQ","img_art/24.jpg","1","","","","","","","","","","","","","","","","","","","","","","","","",""
"1728","","image-button-response","258","1497265","0.0-256.0-0.0","AWTBENF2BL2IQ","img_art/24.jpg","4","","","","","","","","","","","","","","","","","","","","","","","","",""
"4616","","image-button-response","259","1501883","0.0-257.0-0.0","AWTBENF2BL2IQ","img_art/24.jpg","2","","","","","","","","","","","","","","","","","","","","","","","","",""
"null","","html-keyboard-response","260","1503385","0.0-258.0","AWTBENF2BL2IQ","<p style=""font-size: 48px;"">+</p>","","","","","null","allTrialResponses","1500","1","30","img_art/24.jpg","50","Looks like some sort of a colorful waterfall through a very colorful forest. I like it a lot.","Brandon,Bryce,Jorge,Miguel,Garrett,Michael","Simple. Not too abstract. Love the different flower colors.,20,320,20","Looks like a waterfall!,34,20,20","Interested in visiting this place,18,180,20","Very cute amateur piece.,18,160,20","I like the way the colors are put together, and I can imagine this picture in real life.,40,180,20","It's not super high uality  but there is some skill and talent in it I see.,15,140,20","Bryce","Looks like a waterfall!,34,20,20","Garrett","I like the way the colors are put together, and I can imagine this picture in real life.,40,180,20","Jorge","Interested in visiting this place,18,180,20","4"
"3334","","image-button-response_instructions","261","1506728","0.0-259.0","AWTBENF2BL2IQ","","0","instructions","","","","","","","","","","","","","","","","","","","","","","","",""
"1378","","image-button-response","262","1508115","0.0-260.0","AWTBENF2BL2IQ","","0","","","","","","","","","","","","","","","","","","","","","","","","",""
